Timestamp,AccelX,AccelY,AccelZ,GyroX,GyroY,GyroZ,MagX,MagY,MagZ,Posture
2023-10-02 00:39:34,0.0127,-0.0441,0.9757,1.34,-1.77,0.31,-10.12,27.55,-3.77,prone
2023-10-02 00:39:34,0.0066,-0.0396,0.9674,1.1,-1.65,0.18,-9.96,26.95,-4.83,prone
2023-10-02 00:39:34,0.0103,-0.0415,0.9766,1.16,-1.71,0.18,-10.84,27.28,-5.0,prone
2023-10-02 00:39:34,0.0153,-0.0435,0.9757,1.1,-1.77,0.24,-10.16,27.39,-3.22,prone
2023-10-02 00:39:34,0.0085,-0.0361,0.9775,1.04,-2.01,0.24,-9.97,27.04,-4.92,prone
2023-10-02 00:39:34,0.0094,-0.0428,0.9772,0.92,-1.95,0.43,-10.46,27.33,-5.35,prone
2023-10-02 00:39:34,0.016,-0.036,0.9773,0.92,-1.89,0.31,-10.19,27.42,-4.02,prone
2023-10-02 00:39:34,0.0084,-0.0414,0.9781,0.85,-1.95,0.24,-10.13,27.45,-4.19,prone
2023-10-02 00:39:34,0.0135,-0.0397,0.9756,0.98,-2.01,0.37,-10.34,27.21,-5.63,prone
2023-10-02 00:39:35,0.0089,-0.0396,0.9783,1.04,-1.95,0.31,-10.4,27.45,-4.15,prone
2023-10-02 00:39:35,0.0092,-0.0427,0.9763,0.98,-1.83,0.37,-10.03,27.67,-4.31,prone
2023-10-02 00:39:35,0.011,-0.0414,0.9771,1.04,-2.08,0.37,-10.4,27.08,-3.96,prone
2023-10-02 00:39:35,0.0067,-0.0426,0.9766,0.85,-1.77,0.0,-10.24,27.15,-3.22,prone
2023-10-02 00:39:35,0.0168,-0.0364,0.9762,0.79,-1.89,0.12,-10.34,28.31,-4.38,prone
2023-10-02 00:39:35,0.0078,-0.0447,0.9758,0.79,-1.83,0.12,-10.85,26.9,-4.24,prone
2023-10-02 00:39:35,0.012,-0.0386,0.9758,0.98,-1.83,0.37,-10.78,27.6,-5.58,prone
2023-10-02 00:39:35,0.0117,-0.0427,0.9763,0.73,-1.95,0.0,-10.35,27.21,-4.28,prone
2023-10-02 00:39:35,-0.0775,0.0673,1.0431,-7.45,-8.24,1.46,-9.45,27.45,-4.85,prone
2023-10-02 00:39:35,0.0046,0.0421,0.9679,-2.75,-2.08,1.46,-9.72,26.76,-4.88,prone
2023-10-02 00:39:36,-0.0198,-0.0463,1.0011,-0.98,-5.37,2.5,-10.34,27.29,-5.04,prone
2023-10-02 00:39:36,0.0109,-0.0687,0.9583,10.56,1.28,6.84,-10.36,27.48,-4.8,prone
2023-10-02 00:39:36,-0.0106,-0.0154,0.9963,0.43,-1.95,29.05,-10.57,27.56,-4.83,prone
2023-10-02 00:39:36,0.014,-0.0164,0.9758,0.73,-0.85,1.95,-9.8,27.95,-5.3,prone
2023-10-02 00:39:36,-0.0906,0.1499,0.9769,6.23,-2.26,6.84,-10.31,28.65,-3.89,prone
2023-10-02 00:39:36,-0.0032,-0.0415,0.9912,2.26,0.18,1.53,-9.8,28.21,-3.91,prone
2023-10-02 00:39:36,0.0068,-0.0897,0.9823,23.99,10.62,14.77,-9.96,28.91,-4.8,prone
2023-10-02 00:39:36,0.1013,-0.0989,0.9701,8.85,7.2,7.26,-9.68,29.82,-5.35,prone
2023-10-02 00:39:36,0.0999,-0.1292,0.9556,2.62,7.75,5.25,-8.41,30.88,-4.97,prone
2023-10-02 00:39:36,0.0569,-0.0723,0.9584,-0.67,-2.69,4.7,-7.78,31.15,-6.05,prone
2023-10-02 00:39:37,0.0846,-0.0607,0.9332,1.16,-6.04,2.32,-8.58,30.43,-5.9,prone
2023-10-02 00:39:37,0.0671,-0.0043,0.9695,-8.79,-17.88,-4.64,-9.53,29.9,-5.69,prone
2023-10-02 00:39:37,0.0472,-0.0083,1.0001,11.54,-0.55,3.11,-9.79,29.6,-5.57,prone
2023-10-02 00:39:37,0.1099,-0.0582,1.0002,15.08,7.93,1.46,-9.92,29.33,-6.07,prone
2023-10-02 00:39:37,0.1162,-0.0857,0.921,11.96,11.9,9.16,-8.08,30.69,-6.42,prone
2023-10-02 00:39:37,0.1997,-0.1365,1.002,-1.46,9.77,-5.37,-6.84,30.97,-7.17,prone
2023-10-02 00:39:37,0.2236,-0.0732,0.9038,15.62,2.81,7.39,-6.75,29.93,-8.08,prone
2023-10-02 00:39:37,0.1898,-0.0724,0.9142,22.64,-4.76,12.45,-6.65,29.82,-8.3,prone
2023-10-02 00:39:37,0.16,-0.1049,0.973,0.0,-6.59,5.62,-6.36,29.96,-7.82,prone
2023-10-02 00:39:37,0.1362,-0.1372,1.0126,-16.72,4.52,-4.21,-5.99,30.49,-8.79,prone
2023-10-02 00:39:38,0.1387,-0.0272,1.0273,-51.03,-5.13,-5.0,-5.25,27.89,-10.42,prone
2023-10-02 00:39:38,0.115,0.1198,0.9863,-46.51,2.44,4.64,-4.25,24.82,-10.08,prone
2023-10-02 00:39:38,0.1444,0.2988,0.8669,-156.86,-3.17,13.98,-2.4,19.52,-9.28,prone
2023-10-02 00:39:38,0.1343,0.5148,0.682,-160.58,4.58,8.24,-2.26,10.63,-7.89,prone
2023-10-02 00:39:38,0.1604,0.7756,0.3926,-171.02,26.31,29.24,-1.44,2.95,-2.89,prone
2023-10-02 00:39:38,0.1675,0.9397,0.2446,-105.96,12.27,23.32,-1.05,-1.65,3.33,prone
2023-10-02 00:39:38,0.1223,1.0977,-0.2175,-117.8,7.69,30.82,-1.97,-4.19,10.23,prone
2023-10-02 00:39:38,0.0911,0.8177,-0.365,-94.42,5.98,44.13,-3.61,-4.85,16.89,prone
2023-10-02 00:39:38,0.0228,0.7997,-0.516,-83.86,-9.77,18.01,-4.69,-2.93,20.59,prone
2023-10-02 00:39:38,-0.01,0.8075,-0.6311,-58.65,-9.34,4.94,-4.99,-1.9,23.91,prone
2023-10-02 00:39:39,-0.0271,0.7628,-0.7401,-38.15,-8.79,5.74,-6.08,-1.72,26.38,prone
2023-10-02 00:39:39,-0.0901,0.6117,-0.6549,-85.08,10.01,8.91,-6.82,-0.26,28.47,prone
2023-10-02 00:39:39,-0.0426,0.5892,-0.7761,26.18,0.55,5.37,-6.59,2.4,29.91,prone
2023-10-02 00:39:39,-0.0692,0.6202,-0.8419,-17.58,-20.14,7.45,-6.88,2.16,31.08,prone
2023-10-02 00:39:39,0.0,0.5549,-0.8142,-23.74,-6.1,2.56,-7.31,3.7,33.06,prone
2023-10-02 00:39:39,0.0005,-0.0271,-1.0189,1.04,-2.14,0.37,-12.39,29.24,36.84,prone
2023-10-02 00:39:39,-0.0002,-0.0264,-1.0178,0.98,-2.01,0.24,-12.17,29.46,38.13,prone
2023-10-02 00:39:39,0.0005,-0.0266,-1.0199,0.67,-2.08,0.06,-12.85,29.74,38.01,prone
2023-10-02 00:39:39,-0.0012,-0.026,-1.0188,0.79,-1.95,0.18,-12.51,29.19,37.45,prone
2023-10-02 00:39:39,-0.0013,-0.0277,-1.0161,1.1,-2.14,0.37,-12.63,28.7,36.79,prone
2023-10-02 00:39:40,0.0006,-0.0278,-1.0178,1.04,-2.2,0.12,-12.46,29.43,38.31,prone
2023-10-02 00:39:40,0.0005,-0.0284,-1.0192,0.98,-2.08,0.43,-12.76,29.71,37.56,prone
2023-10-02 00:39:40,0.0006,-0.0249,-1.0194,1.04,-2.14,0.31,-11.87,29.14,37.67,prone
2023-10-02 00:39:40,-0.0007,-0.0276,-1.0184,1.04,-2.26,0.31,-11.83,28.96,36.96,prone
2023-10-02 00:39:40,0.0011,-0.0269,-1.0187,0.92,-2.01,0.31,-12.57,29.55,37.76,prone
2023-10-02 00:39:40,0.0006,-0.0271,-1.0192,0.98,-2.2,0.12,-12.27,29.38,37.29,prone
2023-10-02 00:39:40,0.0013,-0.0281,-1.0198,0.79,-2.08,0.18,-12.38,28.75,37.77,prone
2023-10-02 00:39:40,0.0005,-0.0273,-1.0181,1.22,-2.26,0.18,-11.71,28.88,37.98,prone
2023-10-02 00:39:40,0.0004,-0.0287,-1.0188,0.92,-2.14,0.18,-12.34,29.64,37.94,prone
2023-10-02 00:39:40,0.0009,-0.0273,-1.0214,0.98,-2.08,0.18,-11.93,29.32,36.68,prone
2023-10-02 00:39:41,0.0009,-0.028,-1.0178,1.1,-2.14,0.24,-12.28,28.45,36.96,prone
2023-10-02 00:39:41,0.0005,-0.0273,-1.0189,0.98,-1.89,0.31,-12.68,29.74,37.11,prone
2023-10-02 00:39:41,0.0001,-0.0267,-1.0201,0.98,-2.08,0.18,-12.68,29.42,36.93,prone
2023-10-02 00:39:41,0.0005,-0.0277,-1.021,0.98,-2.08,0.18,-12.29,29.11,36.78,prone
2023-10-02 00:39:41,-0.0011,-0.0262,-1.021,0.92,-1.95,0.24,-12.28,29.88,37.83,prone
2023-10-02 00:39:41,0.0032,-0.0267,-1.0179,0.85,-2.2,0.12,-12.37,29.32,38.04,prone
2023-10-02 00:39:41,0.0076,-0.0438,-1.0212,0.85,-2.08,0.43,-12.26,28.98,36.88,prone
2023-10-02 00:39:41,-0.01,-0.0155,-1.0198,1.04,-2.08,0.31,-12.28,29.97,37.66,prone
2023-10-02 00:39:41,0.0066,-0.0375,-1.019,0.92,-2.01,0.06,-12.5,29.6,38.16,prone
2023-10-02 00:39:41,0.0006,-0.0262,-1.0179,0.61,-1.95,0.37,-12.24,29.39,36.78,prone
2023-10-02 00:39:42,-0.0038,-0.0249,-1.0166,0.79,-2.08,0.18,-12.68,29.15,37.33,prone
2023-10-02 00:39:42,-0.001,-0.0254,-1.0188,0.92,-2.01,0.24,-12.56,29.48,37.59,prone
2023-10-02 00:39:42,0.0051,-0.0311,-1.0168,0.85,-1.95,0.06,-12.35,29.08,36.96,prone
2023-10-02 00:39:42,-0.0018,-0.0238,-1.0201,0.79,-2.01,0.61,-12.55,28.76,36.72,prone
2023-10-02 00:39:42,-0.0018,-0.0292,-1.019,0.98,-2.08,0.24,-12.72,29.53,38.01,prone
2023-10-02 00:39:42,0.0015,-0.0277,-1.0115,0.92,-2.01,0.37,-12.34,29.32,38.13,prone
2023-10-02 00:39:42,0.0016,-0.0304,-1.0149,0.98,-2.08,-0.18,-12.7,28.96,37.12,prone
2023-10-02 00:39:42,0.0045,-0.0286,-1.0181,0.92,-2.01,0.31,-12.01,28.91,36.35,prone
2023-10-02 00:39:42,0.0,-0.0326,-1.0182,0.85,-2.08,0.18,-12.65,28.94,37.29,prone
2023-10-02 00:39:42,0.0028,-0.0245,-1.0175,1.1,-1.95,0.37,-12.73,29.44,37.83,prone
2023-10-02 00:39:43,0.0007,-0.0293,-1.0172,1.1,-2.01,0.24,-12.84,28.63,37.49,prone
2023-10-02 00:39:43,0.0016,-0.0275,-1.0193,1.04,-2.01,0.24,-12.43,29.63,37.89,prone
2023-10-02 00:39:43,-0.0005,-0.0275,-1.0183,0.98,-2.14,0.43,-12.44,29.58,37.96,prone
2023-10-02 00:39:43,0.0004,-0.022,-1.0173,0.98,-1.95,0.37,-12.33,29.37,36.56,prone
2023-10-02 00:39:43,-0.0022,-0.0287,-1.0188,1.1,-2.01,0.24,-13.06,29.16,37.15,prone
2023-10-02 00:39:43,-0.0006,-0.0281,-1.0197,0.98,-1.89,0.18,-12.01,29.6,37.99,prone
2023-10-02 00:39:43,0.0004,-0.028,-1.0197,0.85,-2.14,0.24,-12.74,28.83,37.04,prone
2023-10-02 00:39:43,-0.0024,-0.0253,-1.0192,0.92,-2.01,0.24,-12.4,28.99,36.91,prone
2023-10-02 00:39:43,-0.0006,-0.0269,-1.0198,1.04,-1.95,0.18,-12.87,29.08,36.68,prone
2023-10-02 00:39:44,0.0,-0.0254,-1.0175,0.98,-1.83,0.24,-12.89,28.92,36.18,prone
2023-10-02 00:39:44,0.0009,-0.0276,-1.0188,0.79,-2.14,0.18,-12.57,28.98,36.72,prone
2023-10-02 00:39:44,-0.0006,-0.0282,-1.0188,0.98,-2.01,0.24,-12.5,29.46,36.68,prone
2023-10-02 00:39:44,0.0001,-0.0267,-1.0171,0.85,-2.14,0.31,-12.61,29.64,38.01,prone
2023-10-02 00:39:44,-0.0001,-0.028,-1.0183,0.92,-2.01,0.31,-12.55,28.97,36.9,prone
2023-10-02 00:39:44,0.0005,-0.0269,-1.019,0.79,-2.08,0.18,-12.01,29.21,37.98,prone
2023-10-02 00:39:44,0.0002,-0.0262,-1.0183,0.92,-2.08,0.37,-12.59,29.08,37.57,prone
2023-10-02 00:39:44,-0.0027,-0.0265,-1.0184,0.98,-1.89,0.12,-12.56,28.47,37.71,prone
2023-10-02 00:39:44,0.0015,-0.0289,-1.0189,1.04,-2.14,0.18,-12.94,28.83,37.05,prone
2023-10-02 00:39:45,0.0004,-0.0276,-1.0178,0.79,-2.01,0.24,-12.43,29.28,37.05,prone
2023-10-02 00:39:45,-0.0013,-0.027,-1.0203,0.98,-2.14,0.43,-12.9,29.49,38.07,prone
2023-10-02 00:39:45,0.0031,-0.0273,-1.0151,1.04,-2.2,0.43,-12.4,29.09,38.05,prone
2023-10-02 00:39:45,-0.0083,-0.0237,-1.0131,0.98,-2.08,0.43,-12.0,28.78,37.08,prone
2023-10-02 00:39:45,0.0095,-0.0284,-1.0155,0.98,-2.01,0.06,-12.72,29.15,36.84,prone
2023-10-02 00:39:45,-0.0055,-0.0247,-1.0209,1.04,-2.14,0.37,-12.63,29.05,37.63,prone
2023-10-02 00:39:45,0.0038,-0.0308,-1.0165,0.92,-1.95,0.18,-12.23,29.19,36.63,prone
2023-10-02 00:39:45,0.0024,-0.0287,-1.0156,0.98,-2.01,0.55,-12.39,29.38,37.06,prone
2023-10-02 00:39:45,-0.002,-0.0256,-1.0176,1.04,-2.14,0.24,-12.21,29.25,37.77,prone
2023-10-02 00:39:45,0.0027,-0.0258,-1.0188,1.1,-2.08,0.31,-12.02,29.08,36.44,prone
2023-10-02 00:39:46,-0.0024,-0.0271,-1.0194,1.22,-2.2,0.37,-12.16,28.97,37.41,prone
2023-10-02 00:39:46,0.0004,-0.0248,-1.0211,1.1,-1.95,0.24,-12.48,29.11,38.44,prone
2023-10-02 00:39:46,0.0016,-0.0283,-1.0193,0.98,-2.08,0.24,-12.74,29.25,37.55,prone
2023-10-02 00:39:46,-0.001,-0.026,-1.0206,0.98,-2.01,0.31,-12.16,29.19,37.44,prone
2023-10-02 00:39:46,0.0011,-0.0286,-1.0168,1.04,-2.14,0.24,-12.45,30.03,37.51,prone
2023-10-02 00:39:46,0.0016,-0.0266,-1.02,1.04,-1.89,0.24,-11.9,29.15,37.68,prone
2023-10-02 00:39:46,0.0001,-0.0295,-1.0178,0.98,-2.08,0.31,-12.04,29.06,37.26,prone
2023-10-02 00:39:46,-0.0005,-0.0267,-1.019,1.22,-1.89,0.18,-12.51,29.58,36.84,prone
2023-10-02 00:39:46,0.0007,-0.0256,-1.0187,0.92,-2.14,0.24,-12.56,29.83,37.87,prone
2023-10-02 00:39:47,0.0028,-0.03,-1.017,0.98,-2.14,0.31,-12.95,28.8,37.51,prone
2023-10-02 00:39:47,0.0007,-0.0269,-1.0164,0.98,-2.08,0.31,-11.96,28.69,37.71,prone
2023-10-02 00:39:47,-0.0015,-0.028,-1.0198,0.85,-2.14,0.24,-12.78,29.25,38.33,prone
2023-10-02 00:39:47,0.0005,-0.0247,-1.0173,1.16,-2.14,0.31,-12.44,29.46,38.16,prone
2023-10-02 00:39:47,0.0002,-0.0267,-1.0193,0.92,-2.14,0.24,-12.32,28.82,37.19,prone
2023-10-02 00:39:47,0.0005,-0.0267,-1.0171,1.1,-2.14,0.31,-12.51,29.0,37.12,prone
2023-10-02 00:39:47,0.0012,-0.0273,-1.019,1.1,-1.83,0.31,-12.32,29.26,38.0,prone
2023-10-02 00:39:47,0.0005,-0.0275,-1.0184,1.04,-2.01,0.18,-12.18,28.85,36.67,prone
2023-10-02 00:39:47,0.0011,-0.0277,-1.0177,0.92,-2.08,0.24,-12.17,29.2,36.72,prone
2023-10-02 00:39:48,0.0006,-0.0291,-1.0184,1.04,-2.26,0.31,-12.81,29.33,37.04,prone
2023-10-02 00:39:48,0.0012,-0.0277,-1.0175,1.1,-2.01,0.31,-12.7,29.02,37.21,prone
2023-10-02 00:39:48,0.0007,-0.0288,-1.0182,1.1,-2.14,0.37,-12.26,29.05,36.08,prone
2023-10-02 00:39:48,0.0004,-0.0298,-1.0183,1.28,-2.14,0.24,-11.63,29.11,37.43,prone
2023-10-02 00:39:48,0.0005,-0.0276,-1.0172,0.98,-2.2,0.37,-12.32,29.16,37.83,prone
2023-10-02 00:39:48,0.0006,-0.0276,-1.0177,1.04,-2.08,0.12,-11.83,28.74,36.82,prone
2023-10-02 00:39:48,0.0012,-0.0271,-1.0182,1.16,-2.32,0.18,-12.19,28.98,36.62,prone
2023-10-02 00:39:48,-0.0001,-0.0284,-1.0187,1.04,-1.95,0.37,-12.02,29.41,37.82,prone
2023-10-02 00:39:48,0.0009,-0.0276,-1.0175,0.79,-2.14,0.12,-12.12,28.45,36.58,prone
2023-10-02 00:39:48,0.0004,-0.0271,-1.019,0.98,-2.08,0.31,-12.17,28.88,35.63,prone
2023-10-02 00:39:49,0.0006,-0.0273,-1.0183,0.92,-2.14,0.18,-12.11,29.57,37.32,prone
2023-10-02 00:39:49,0.0004,-0.0271,-1.0184,0.92,-2.14,0.18,-12.35,28.89,37.52,prone
2023-10-02 00:39:49,0.0007,-0.0262,-1.0181,0.85,-2.32,0.12,-12.07,28.99,36.9,prone
2023-10-02 00:39:49,0.0007,-0.0271,-1.0192,0.85,-2.08,0.31,-12.54,29.43,36.36,prone
2023-10-02 00:39:49,0.0004,-0.0282,-1.019,0.85,-2.01,0.18,-12.54,29.27,37.74,prone
2023-10-02 00:39:49,0.0006,-0.0272,-1.0192,1.04,-2.01,0.24,-12.28,28.64,37.06,prone
2023-10-02 00:39:49,0.0004,-0.0273,-1.0187,0.92,-2.2,0.31,-12.46,29.16,38.01,prone
2023-10-02 00:39:49,0.0006,-0.0275,-1.0176,0.98,-2.14,0.24,-12.01,29.46,37.4,prone
2023-10-02 00:39:49,0.0005,-0.0273,-1.0179,0.98,-2.14,0.18,-12.27,29.42,36.4,prone
2023-10-02 00:39:50,0.0001,-0.0264,-1.0188,0.79,-2.14,0.31,-12.43,29.14,37.96,prone
2023-10-02 00:39:50,0.0007,-0.028,-1.0186,0.85,-2.26,0.31,-11.62,29.3,37.7,prone
2023-10-02 00:39:50,0.0007,-0.0271,-1.0173,0.98,-2.14,0.31,-12.56,29.53,38.22,prone
2023-10-02 00:39:50,0.0004,-0.0266,-1.0183,0.85,-2.01,0.24,-12.26,29.58,37.5,prone
2023-10-02 00:39:50,0.0007,-0.027,-1.0177,0.92,-2.14,0.37,-12.02,29.14,38.1,prone
2023-10-02 00:39:50,0.0011,-0.0273,-1.0184,1.1,-2.14,0.18,-12.19,30.03,36.77,prone
2023-10-02 00:39:50,0.0007,-0.0277,-1.0182,0.92,-2.14,0.43,-11.71,29.41,36.99,prone
2023-10-02 00:39:50,-0.002,-0.0262,-1.0179,0.85,-2.2,0.18,-12.1,28.87,36.49,prone
2023-10-02 00:39:50,0.0005,-0.0261,-1.0188,0.98,-2.14,0.24,-12.29,29.05,37.63,prone
2023-10-02 00:39:51,0.0007,-0.0278,-1.0183,1.1,-2.2,0.24,-12.32,29.42,38.5,prone
2023-10-02 00:39:51,-0.0005,-0.0276,-1.019,0.98,-2.14,0.24,-12.93,28.89,37.01,prone
2023-10-02 00:39:51,0.0006,-0.0273,-1.0211,0.92,-2.26,0.37,-12.0,28.81,37.41,prone
2023-10-02 00:39:51,0.0005,-0.0273,-1.0175,0.92,-2.14,0.06,-12.88,29.57,38.12,prone
2023-10-02 00:39:51,0.0005,-0.0269,-1.0206,1.16,-2.26,0.24,-12.15,28.97,37.98,prone
2023-10-02 00:39:51,0.0011,-0.0282,-1.0184,0.85,-2.32,0.18,-12.08,29.19,37.04,prone
2023-10-02 00:39:51,0.0011,-0.0276,-1.0189,0.85,-2.14,0.18,-12.74,29.17,38.42,prone
2023-10-02 00:39:51,0.0005,-0.0281,-1.0176,0.79,-2.14,0.31,-12.87,29.91,37.7,prone
2023-10-02 00:39:51,0.0002,-0.0258,-1.0182,0.92,-2.14,0.18,-12.48,29.28,37.05,prone
2023-10-02 00:39:51,0.0012,-0.028,-1.0187,0.98,-2.26,0.06,-12.5,29.04,37.65,prone
2023-10-02 00:39:52,0.0067,-0.0341,-1.0142,0.79,-2.38,0.43,-12.46,29.74,36.57,prone
2023-10-02 00:39:52,-0.0042,-0.0265,-1.0217,0.55,-2.2,0.18,-12.96,29.3,36.57,prone
2023-10-02 00:39:52,0.0079,-0.0272,-1.0199,0.98,-2.26,0.18,-12.29,28.43,36.49,prone
2023-10-02 00:39:52,-0.0034,-0.0284,-1.0203,0.98,-2.01,0.24,-12.88,29.43,38.1,prone
2023-10-02 00:39:52,0.0022,-0.0269,-1.0193,1.04,-2.08,0.12,-12.22,29.16,37.57,prone
2023-10-02 00:39:52,-0.0028,-0.0237,-1.0173,1.04,-2.08,0.43,-12.22,29.22,37.29,prone
2023-10-02 00:39:52,0.0,-0.0297,-1.0242,1.1,-2.14,0.06,-11.96,29.66,37.21,prone
2023-10-02 00:39:52,0.0009,-0.0265,-1.022,1.1,-1.83,0.31,-12.62,29.81,37.12,prone
2023-10-02 00:39:52,-0.0017,-0.0308,-1.0176,0.92,-2.14,0.12,-12.78,29.11,36.85,prone
2023-10-02 00:39:53,0.0029,-0.0278,-1.0181,0.85,-2.08,0.18,-11.76,28.55,36.39,prone
2023-10-02 00:39:53,0.0004,-0.0319,-1.0177,0.98,-2.08,0.18,-12.55,29.58,36.93,prone
2023-10-02 00:39:53,0.0022,-0.0201,-1.0167,1.04,-1.95,0.06,-12.59,29.1,37.72,prone
2023-10-02 00:39:53,-0.0016,-0.0365,-1.0188,0.98,-2.14,0.31,-12.32,28.85,36.57,prone
2023-10-02 00:39:53,0.0037,-0.0215,-1.0175,0.98,-2.2,0.37,-12.72,29.03,36.56,prone
2023-10-02 00:39:53,0.0011,-0.0288,-1.0161,0.92,-2.14,0.06,-13.17,29.38,37.41,prone
2023-10-02 00:39:53,0.0,-0.0264,-1.0212,0.79,-1.59,0.37,-12.15,29.08,37.17,prone
2023-10-02 00:39:53,-0.0002,-0.0304,-1.0226,1.04,-2.14,-0.12,-12.27,29.14,38.09,prone
2023-10-02 00:39:53,0.0012,-0.0287,-1.0165,1.04,-2.08,0.18,-12.76,29.76,37.08,prone
2023-10-02 00:39:54,-0.0057,-0.0286,-1.0164,1.1,-2.2,0.24,-12.04,29.11,35.57,prone
2023-10-02 00:39:54,0.0033,-0.0238,-1.0165,0.85,-2.01,0.31,-11.95,29.09,36.69,prone
2023-10-02 00:39:54,-0.0029,-0.0288,-1.0192,1.04,-2.08,0.24,-12.49,29.28,38.61,prone
2023-10-02 00:39:54,0.0007,-0.0245,-1.0192,0.98,-2.01,0.24,-12.07,29.52,38.26,prone
2023-10-02 00:39:54,0.0002,-0.0286,-1.0195,1.1,-2.08,0.31,-12.49,29.85,35.89,prone
2023-10-02 00:39:54,0.0006,-0.0259,-1.0177,0.85,-2.08,0.24,-12.16,29.16,36.66,prone
2023-10-02 00:39:54,-0.0023,-0.0269,-1.0179,0.92,-2.2,0.12,-12.59,28.97,38.59,prone
2023-10-02 00:39:54,0.0,-0.0286,-1.0186,0.85,-2.08,0.24,-12.81,28.87,37.3,prone
2023-10-02 00:39:54,0.0004,-0.0271,-1.0175,0.92,-2.08,0.24,-12.01,29.08,37.5,prone
2023-10-02 00:39:54,-0.0013,-0.0275,-1.0189,0.98,-2.08,0.24,-12.44,29.13,37.6,prone
2023-10-02 00:39:55,0.0023,-0.0294,-1.0192,1.22,-2.2,0.18,-12.59,29.21,38.21,prone
2023-10-02 00:39:55,-0.0001,-0.0264,-1.0188,0.85,-2.2,0.31,-12.67,29.2,37.37,prone
2023-10-02 00:39:55,0.0006,-0.031,-1.0184,0.85,-2.01,0.37,-12.41,28.71,38.15,prone
2023-10-02 00:39:55,-0.0001,-0.0234,-1.0186,0.98,-2.01,0.37,-12.85,28.93,37.82,prone
2023-10-02 00:39:55,0.0002,-0.0289,-1.0189,0.98,-2.08,0.18,-12.6,29.16,37.01,prone
2023-10-02 00:39:55,0.001,-0.0261,-1.0184,1.04,-2.14,0.43,-12.38,28.54,37.1,prone
2023-10-02 00:39:55,-0.0028,-0.0275,-1.0188,0.98,-2.2,0.12,-12.04,29.27,37.77,prone
2023-10-02 00:39:55,0.0026,-0.0265,-1.0193,0.85,-2.01,0.24,-12.55,29.1,38.26,prone
2023-10-02 00:39:55,-0.0015,-0.0272,-1.0194,0.92,-2.2,0.18,-12.24,29.09,37.48,prone
2023-10-02 00:39:56,0.0026,-0.0286,-1.0171,0.92,-1.89,0.18,-11.88,29.06,37.61,prone
2023-10-02 00:39:56,-0.001,-0.0271,-1.019,0.98,-1.77,0.31,-12.43,29.11,37.02,prone
2023-10-02 00:39:56,0.0011,-0.0275,-1.021,1.04,-2.14,0.18,-12.54,29.0,36.33,prone
2023-10-02 00:39:56,-0.0028,-0.0267,-1.0184,0.92,-2.01,0.24,-11.89,29.69,38.18,prone
2023-10-02 00:39:56,0.0012,-0.0262,-1.0208,1.1,-2.01,0.12,-12.08,29.49,38.42,prone
2023-10-02 00:39:56,-0.0016,-0.0287,-1.0186,1.04,-2.08,0.18,-12.67,28.89,38.51,prone
2023-10-02 00:39:56,0.0017,-0.0273,-1.0179,1.04,-2.08,0.18,-12.04,28.87,36.66,prone
2023-10-02 00:39:56,-0.0023,-0.0275,-1.0188,1.1,-2.2,0.43,-12.48,29.7,37.18,prone
2023-10-02 00:39:56,0.0006,-0.0277,-1.0186,0.79,-2.2,0.24,-12.61,29.27,37.95,prone
2023-10-02 00:39:57,0.0002,-0.0266,-1.019,0.85,-2.08,0.37,-12.73,29.21,36.93,prone
2023-10-02 00:39:57,0.0005,-0.0286,-1.0193,0.79,-2.14,0.18,-12.95,28.69,36.46,prone
2023-10-02 00:39:57,0.0009,-0.0281,-1.0177,0.85,-2.08,0.18,-13.02,29.24,37.65,prone
2023-10-02 00:39:57,0.0005,-0.0281,-1.0186,0.98,-2.14,0.12,-12.65,29.42,37.46,prone
2023-10-02 00:39:57,0.0006,-0.0281,-1.0193,0.98,-2.26,0.12,-12.82,28.8,36.3,prone
2023-10-02 00:39:57,0.0012,-0.0287,-1.0177,0.85,-2.2,0.18,-12.56,29.44,37.3,prone
2023-10-02 00:39:57,-0.0015,-0.0269,-1.019,0.98,-2.01,0.18,-12.95,29.7,37.76,prone
2023-10-02 00:39:57,0.0009,-0.0294,-1.0189,0.85,-1.89,0.24,-12.73,29.09,38.02,prone
2023-10-02 00:39:57,0.0,-0.0277,-1.0183,0.85,-2.2,0.24,-13.13,28.41,37.63,prone
2023-10-02 00:39:57,0.0004,-0.0272,-1.0182,1.04,-2.08,0.31,-13.12,29.38,37.56,prone
2023-10-02 00:39:58,0.001,-0.0271,-1.0186,0.92,-2.08,0.12,-12.85,28.82,37.43,prone
2023-10-02 00:39:58,0.0004,-0.028,-1.0192,0.85,-2.14,0.24,-12.6,28.49,37.72,prone
2023-10-02 00:39:58,0.001,-0.0278,-1.0186,0.92,-2.01,0.12,-12.59,29.26,37.49,prone
2023-10-02 00:39:58,-0.0018,-0.027,-1.0195,1.1,-2.08,0.18,-12.59,29.5,37.71,prone
2023-10-02 00:39:58,0.0007,-0.0264,-1.019,0.85,-2.01,0.31,-12.35,29.42,37.23,prone
2023-10-02 00:39:58,-0.0005,-0.028,-1.0193,1.1,-2.2,0.24,-12.13,28.28,37.59,prone
2023-10-02 00:39:58,0.0005,-0.0288,-1.0188,0.98,-2.14,0.12,-12.55,29.19,38.42,prone
2023-10-02 00:39:58,0.0006,-0.0266,-1.0188,0.85,-2.08,0.31,-12.52,29.27,37.68,prone
2023-10-02 00:39:58,-0.0005,-0.0276,-1.0178,0.92,-1.89,0.12,-12.43,28.7,36.71,prone
2023-10-02 00:39:59,0.0004,-0.0283,-1.0189,1.04,-2.01,0.31,-12.7,29.06,38.59,prone
2023-10-02 00:39:59,0.001,-0.028,-1.0184,1.04,-2.08,0.31,-12.87,29.5,37.15,prone
2023-10-02 00:39:59,0.0007,-0.0283,-1.0179,0.98,-2.2,0.06,-12.24,29.44,38.18,prone
2023-10-02 00:39:59,0.0006,-0.0269,-1.0193,0.92,-2.08,0.24,-12.51,29.68,38.07,prone
2023-10-02 00:39:59,0.0004,-0.0284,-1.0181,0.85,-1.83,0.31,-12.54,29.55,37.63,prone
2023-10-02 00:39:59,-0.0022,-0.0254,-1.0187,0.73,-2.14,0.24,-13.04,29.2,37.93,prone
2023-10-02 00:39:59,0.0024,-0.0282,-1.0181,0.92,-2.01,0.31,-12.35,28.82,36.8,prone
2023-10-02 00:39:59,-0.0034,-0.024,-1.0181,0.98,-2.2,0.31,-13.0,29.36,37.68,prone
2023-10-02 00:39:59,0.0009,-0.028,-1.0197,0.98,-2.14,0.18,-12.73,28.39,38.51,prone
2023-10-02 00:40:00,-0.0023,-0.0277,-1.0182,0.92,-2.2,0.37,-12.32,28.96,36.87,prone
2023-10-02 00:40:00,0.0006,-0.0282,-1.0187,1.04,-2.14,0.18,-12.62,29.2,36.93,prone
2023-10-02 00:40:00,0.0009,-0.0261,-1.0181,0.92,-2.14,0.31,-12.63,29.17,38.15,prone
2023-10-02 00:40:00,0.0006,-0.0272,-1.02,1.04,-2.08,0.24,-13.1,28.97,37.33,prone
2023-10-02 00:40:00,0.0004,-0.0282,-1.0192,1.04,-1.95,0.24,-12.43,28.87,38.0,prone
2023-10-02 00:40:00,0.0311,-0.0272,-1.0183,1.04,-1.95,0.31,-12.15,29.14,37.44,prone
2023-10-02 00:40:00,0.0,-0.0256,-1.0182,0.98,-2.14,0.18,-12.61,29.06,37.71,prone
2023-10-02 00:40:00,0.0002,-0.0281,-1.0186,0.98,-2.01,0.12,-13.04,28.54,37.13,prone
2023-10-02 00:40:00,0.0009,-0.027,-1.0176,0.85,-2.01,0.18,-12.99,29.1,37.87,prone
2023-10-02 00:40:00,-0.0023,-0.0273,-1.0186,0.85,-2.08,0.37,-12.84,29.03,38.09,prone
2023-10-02 00:40:01,0.001,-0.0281,-1.0177,0.85,-2.14,0.12,-12.67,28.52,36.94,prone
2023-10-02 00:40:01,-0.0001,-0.0261,-1.0184,1.04,-2.32,0.06,-12.21,28.88,37.63,prone
2023-10-02 00:40:01,0.0018,-0.0282,-1.0201,0.85,-2.14,0.24,-12.95,29.0,38.01,prone
2023-10-02 00:40:01,-0.0012,-0.0275,-1.0179,1.04,-2.08,0.37,-11.78,29.25,36.43,prone
2023-10-02 00:40:01,0.0009,-0.027,-1.0203,0.98,-2.2,0.12,-11.98,29.04,37.06,prone
2023-10-02 00:40:01,-0.0001,-0.0278,-1.0183,0.85,-2.14,0.24,-12.45,29.0,37.01,prone
2023-10-02 00:40:01,0.0007,-0.0273,-1.0192,0.85,-2.08,0.24,-12.66,28.99,36.67,prone
2023-10-02 00:40:01,0.0001,-0.0271,-1.0182,0.92,-2.01,0.24,-12.02,28.69,36.49,prone
2023-10-02 00:40:01,0.0006,-0.027,-1.0184,0.79,-2.14,0.18,-12.24,28.86,37.15,prone
2023-10-02 00:40:02,0.0005,-0.0273,-1.0182,0.79,-2.08,0.18,-12.29,29.41,36.8,prone
2023-10-02 00:40:02,0.0004,-0.0275,-1.0184,0.73,-2.2,0.24,-12.83,28.76,36.87,prone
2023-10-02 00:40:02,0.0006,-0.0291,-1.0189,0.73,-2.14,0.18,-12.13,28.33,37.45,prone
2023-10-02 00:40:02,-0.0002,-0.0271,-1.0189,0.79,-2.08,0.12,-12.38,28.69,37.66,prone
2023-10-02 00:40:02,0.0006,-0.0278,-1.0181,0.79,-2.08,0.37,-12.02,29.42,37.76,prone
2023-10-02 00:40:02,0.0002,-0.0272,-1.0177,0.92,-2.14,0.24,-11.95,28.82,37.23,prone
2023-10-02 00:40:02,0.0007,-0.0281,-1.0168,1.22,-2.08,0.31,-12.01,28.8,37.29,prone
2023-10-02 00:40:02,-0.0002,-0.0282,-1.0175,1.04,-2.08,0.18,-12.07,29.06,37.72,prone
2023-10-02 00:40:02,0.0017,-0.0287,-1.0173,1.04,-2.08,0.18,-12.01,28.99,37.24,prone
2023-10-02 00:40:03,0.0005,-0.0282,-1.0179,1.04,-2.01,0.18,-12.3,28.45,36.89,prone
2023-10-02 00:40:03,0.0001,-0.027,-1.0187,1.04,-2.14,0.31,-12.38,28.88,37.76,prone
2023-10-02 00:40:03,-0.0016,-0.0258,-1.0178,1.04,-2.14,0.31,-12.08,29.06,38.27,prone
2023-10-02 00:40:03,0.0002,-0.0261,-1.0189,1.1,-1.95,0.31,-12.18,28.5,37.27,prone
2023-10-02 00:40:03,-0.0009,-0.0258,-1.0177,1.1,-2.08,0.31,-12.02,28.86,38.29,prone
2023-10-02 00:40:03,-0.0012,-0.0291,-1.0181,1.04,-2.08,0.18,-12.29,29.43,37.39,prone
2023-10-02 00:40:03,0.0052,-0.0287,-1.0127,1.04,-2.14,0.24,-12.51,29.53,37.19,prone
2023-10-02 00:40:03,-0.0016,-0.0262,-1.0176,0.98,-2.14,0.18,-12.23,29.72,36.94,prone
2023-10-02 00:40:03,0.0001,-0.0289,-1.0193,0.98,-2.01,0.12,-12.45,29.57,36.44,prone
2023-10-02 00:40:03,0.0076,-0.0374,-1.0155,1.1,-2.44,0.43,-11.93,29.42,36.46,prone
2023-10-02 00:40:04,-0.0055,-0.0172,-1.0193,0.98,-2.26,0.12,-12.17,28.91,36.84,prone
2023-10-02 00:40:04,0.0114,-0.0332,-1.0179,0.85,-2.01,0.24,-12.37,29.36,37.76,prone
2023-10-02 00:40:04,-0.0056,-0.0245,-1.0181,0.79,-2.14,0.24,-12.32,29.2,38.1,prone
2023-10-02 00:40:04,0.0055,-0.0284,-1.0182,0.79,-2.08,-0.06,-12.41,28.89,37.81,prone
2023-10-02 00:40:04,-0.0004,-0.022,-1.0187,0.92,-1.89,0.24,-12.32,29.32,37.39,prone
2023-10-02 00:40:04,-0.002,-0.0289,-1.0175,0.92,-2.01,0.18,-12.32,29.65,38.34,prone
2023-10-02 00:40:04,0.0061,-0.0262,-1.0154,0.85,-2.2,0.12,-12.33,28.96,36.6,prone
2023-10-02 00:40:04,-0.0042,-0.0276,-1.0187,1.04,-2.08,0.24,-12.0,29.26,36.72,prone
2023-10-02 00:40:04,0.005,-0.0276,-1.0173,0.92,-2.2,0.31,-12.1,29.04,38.07,prone
2023-10-02 00:40:05,-0.0029,-0.0275,-1.0142,0.92,-2.01,0.37,-12.87,29.53,38.83,prone
2023-10-02 00:40:05,0.0004,-0.028,-1.0151,0.98,-2.08,0.24,-12.1,28.92,37.94,prone
2023-10-02 00:40:05,0.0006,-0.0255,-1.0167,1.1,-1.95,0.31,-12.61,29.2,37.5,prone
2023-10-02 00:40:05,0.0006,-0.0291,-1.0186,1.04,-2.2,0.31,-12.15,29.36,38.7,prone
2023-10-02 00:40:05,0.0034,-0.027,-1.0153,1.04,-2.08,0.24,-12.19,29.41,37.21,prone
2023-10-02 00:40:05,-0.0043,-0.0259,-1.0171,0.92,-2.08,0.24,-12.46,28.7,37.37,prone
2023-10-02 00:40:05,0.0013,-0.0286,-1.0153,0.98,-2.08,0.31,-12.08,29.74,38.48,prone
2023-10-02 00:40:05,0.0011,-0.0297,-1.019,0.85,-2.01,0.24,-12.51,29.44,37.62,prone
2023-10-02 00:40:05,0.001,-0.0276,-1.0188,1.16,-2.01,0.24,-11.85,29.31,36.63,prone
2023-10-02 00:40:06,0.0006,-0.0271,-1.0182,1.1,-2.08,0.12,-12.23,29.49,37.33,prone
2023-10-02 00:40:06,0.0001,-0.0294,-1.0211,0.92,-2.01,0.24,-11.58,29.97,37.55,prone
2023-10-02 00:40:06,0.0021,-0.0267,-1.0175,1.34,-2.14,0.43,-12.37,29.32,35.79,prone
2023-10-02 00:40:06,0.0006,-0.028,-1.0194,0.92,-2.08,0.18,-12.02,29.17,37.67,prone
2023-10-02 00:40:06,0.0005,-0.027,-1.0179,0.98,-2.14,0.37,-12.43,29.63,38.11,prone
2023-10-02 00:40:06,-0.0001,-0.0267,-1.019,0.92,-2.2,0.37,-11.99,29.64,37.33,prone
2023-10-02 00:40:06,0.0004,-0.0281,-1.0193,1.04,-2.14,0.24,-12.56,28.67,36.06,prone
2023-10-02 00:40:06,0.0007,-0.0283,-1.0172,0.98,-2.14,0.12,-12.81,29.53,36.96,prone
2023-10-02 00:40:06,0.0012,-0.0282,-1.019,1.04,-2.2,0.31,-12.38,29.11,36.83,prone
2023-10-02 00:40:06,0.0006,-0.027,-1.0194,0.79,-1.95,0.31,-12.39,28.98,36.33,prone
2023-10-02 00:40:07,0.0006,-0.0277,-1.0183,0.92,-2.01,0.24,-12.55,29.33,36.65,prone
2023-10-02 00:40:07,-0.001,-0.0276,-1.0179,0.98,-2.08,0.31,-12.06,29.32,37.63,prone
2023-10-02 00:40:07,0.0005,-0.0272,-1.0194,0.79,-2.01,0.24,-12.57,29.22,37.18,prone
2023-10-02 00:40:07,0.0006,-0.0269,-1.0183,0.85,-1.95,0.31,-12.22,29.5,36.12,prone
2023-10-02 00:40:07,0.0004,-0.0269,-1.0189,1.04,-2.01,0.12,-12.3,29.53,37.41,prone
2023-10-02 00:40:07,0.0001,-0.0262,-1.0186,1.16,-2.01,0.31,-13.07,29.35,36.68,prone
2023-10-02 00:40:07,0.0004,-0.0287,-1.0189,1.1,-2.01,0.37,-12.45,29.49,35.64,prone
2023-10-02 00:40:07,0.0004,-0.0267,-1.0184,0.85,-2.01,0.24,-12.44,29.17,36.34,prone
2023-10-02 00:40:07,0.0005,-0.0278,-1.0188,1.04,-2.14,0.31,-12.4,29.74,37.52,prone
2023-10-02 00:40:08,-0.0005,-0.027,-1.0187,1.1,-2.08,0.31,-12.33,29.0,37.61,prone
2023-10-02 00:40:08,0.0007,-0.0272,-1.0186,1.04,-2.01,0.24,-12.63,28.86,37.67,prone
2023-10-02 00:40:08,0.0007,-0.0266,-1.0189,0.92,-2.14,0.24,-12.46,29.19,36.98,prone
2023-10-02 00:40:08,0.0004,-0.0283,-1.0173,1.16,-2.2,0.37,-12.62,30.11,37.11,prone
2023-10-02 00:40:08,0.0005,-0.0271,-1.0198,0.98,-2.14,0.31,-13.11,28.94,36.74,prone
2023-10-02 00:40:08,0.0005,-0.0282,-1.0176,0.98,-2.14,0.31,-12.35,29.38,36.6,prone
2023-10-02 00:40:08,0.0004,-0.0265,-1.0187,0.92,-2.14,0.37,-11.89,29.53,38.51,prone
2023-10-02 00:40:08,0.0005,-0.0272,-1.0204,0.98,-2.14,0.37,-12.98,28.7,38.27,prone
2023-10-02 00:40:08,0.001,-0.0281,-1.017,0.85,-2.08,0.31,-11.98,29.38,37.06,prone
2023-10-02 00:40:08,0.0005,-0.0258,-1.0197,0.85,-2.14,0.31,-12.21,29.64,36.74,prone
2023-10-02 00:40:09,0.0005,-0.0278,-1.0188,0.79,-2.14,0.06,-12.56,29.64,36.73,prone
2023-10-02 00:40:09,0.0006,-0.0281,-1.0182,1.1,-2.2,0.24,-11.93,29.03,36.73,prone
2023-10-02 00:40:09,0.0005,-0.0275,-1.0189,0.98,-2.2,0.31,-12.16,29.25,37.26,prone
2023-10-02 00:40:09,0.0006,-0.0275,-1.0189,0.85,-1.95,0.18,-12.21,30.03,39.0,prone
2023-10-02 00:40:09,0.0002,-0.0277,-1.0175,1.1,-2.2,0.37,-12.28,28.74,36.62,prone
2023-10-02 00:40:09,0.0007,-0.0271,-1.019,0.85,-1.95,0.31,-12.49,28.58,37.49,prone
2023-10-02 00:40:09,-0.0005,-0.0265,-1.0183,0.92,-2.14,0.12,-12.62,28.99,37.83,prone
2023-10-02 00:40:09,0.0006,-0.0269,-1.0178,1.1,-2.01,0.24,-12.66,28.98,37.76,prone
2023-10-02 00:40:09,-0.0001,-0.0272,-1.0179,0.85,-2.08,0.06,-11.8,29.22,36.54,prone
2023-10-02 00:40:10,0.0006,-0.0287,-1.0188,1.04,-2.14,0.37,-12.11,29.54,38.09,prone
2023-10-02 00:40:10,0.0005,-0.0259,-1.0186,1.1,-2.14,0.24,-12.08,30.13,37.41,prone
2023-10-02 00:40:10,0.0005,-0.0273,-1.0188,1.1,-2.14,0.31,-12.06,29.27,37.52,prone
2023-10-02 00:40:10,0.0005,-0.0275,-1.0173,0.98,-2.01,0.18,-12.02,29.26,38.35,prone
2023-10-02 00:40:10,0.0006,-0.0278,-1.0193,1.1,-1.89,0.18,-12.54,28.93,38.99,prone
2023-10-02 00:40:10,0.0015,-0.0277,-1.0182,0.79,-1.95,0.24,-12.65,29.31,38.01,prone
2023-10-02 00:40:10,0.0002,-0.0262,-1.0188,0.98,-1.89,0.31,-13.2,29.41,36.56,prone
2023-10-02 00:40:10,0.0007,-0.028,-1.0173,1.04,-2.14,0.18,-13.12,29.86,37.62,prone
2023-10-02 00:40:10,0.0007,-0.0283,-1.0187,1.04,-1.95,0.24,-12.84,29.9,38.56,prone
2023-10-02 00:40:11,0.0005,-0.0283,-1.0189,0.98,-2.08,0.06,-12.19,29.09,37.72,prone
2023-10-02 00:40:11,0.0005,-0.0272,-1.0188,1.16,-2.2,0.18,-12.24,29.31,37.48,prone
2023-10-02 00:40:11,0.0011,-0.0281,-1.0182,0.98,-2.26,0.12,-12.19,29.41,37.88,prone
2023-10-02 00:40:11,0.0005,-0.0276,-1.0182,1.1,-2.26,0.18,-12.87,29.05,37.65,prone
2023-10-02 00:40:11,0.0009,-0.0291,-1.0178,0.98,-2.2,0.18,-12.54,29.19,37.92,prone
2023-10-02 00:40:11,0.0004,-0.027,-1.0205,1.04,-2.08,0.37,-12.51,29.3,38.12,prone
2023-10-02 00:40:11,0.0006,-0.0281,-1.0182,1.04,-2.2,0.24,-11.93,29.75,37.79,prone
2023-10-02 00:40:11,0.0004,-0.0271,-1.0177,0.92,-2.08,0.18,-12.07,29.37,36.9,prone
2023-10-02 00:40:11,0.0007,-0.0269,-1.0181,0.92,-2.14,0.12,-12.78,29.02,38.42,prone
2023-10-02 00:40:11,0.0006,-0.0265,-1.0188,0.79,-2.01,0.06,-12.34,29.83,37.79,prone
2023-10-02 00:40:12,0.0006,-0.0286,-1.0186,1.04,-2.01,0.24,-12.02,29.22,36.44,prone
2023-10-02 00:40:12,0.0004,-0.0275,-1.0193,0.98,-2.14,0.18,-12.08,29.06,37.43,prone
2023-10-02 00:40:12,0.0011,-0.0278,-1.0181,0.92,-2.08,0.31,-12.68,28.77,38.6,prone
2023-10-02 00:40:12,0.0006,-0.0262,-1.0176,0.98,-2.08,0.18,-12.6,29.05,38.2,prone
2023-10-02 00:40:12,0.0005,-0.0289,-1.0183,1.04,-2.26,0.18,-12.35,29.44,37.39,prone
2023-10-02 00:40:12,0.0011,-0.027,-1.0189,1.16,-2.2,0.24,-12.32,29.77,37.32,prone
2023-10-02 00:40:12,0.0005,-0.0269,-1.0193,1.04,-2.14,0.18,-12.57,29.68,38.21,prone
2023-10-02 00:40:12,0.0011,-0.0265,-1.0188,1.16,-2.14,0.37,-12.57,29.06,37.87,prone
2023-10-02 00:40:12,0.0002,-0.0267,-1.0197,1.22,-2.01,0.24,-12.43,29.02,36.96,prone
2023-10-02 00:40:13,0.0005,-0.0261,-1.019,1.22,-2.26,0.31,-12.05,29.24,38.0,prone
2023-10-02 00:40:13,-0.0006,-0.0259,-1.0184,0.85,-2.01,0.24,-11.5,29.32,37.59,prone
2023-10-02 00:40:13,0.0002,-0.0271,-1.0187,1.04,-2.2,0.31,-11.88,28.74,36.93,prone
2023-10-02 00:40:13,-0.001,-0.0267,-1.0192,1.1,-2.2,0.31,-11.89,29.24,37.56,prone
2023-10-02 00:40:13,0.0018,-0.0288,-1.0187,0.98,-2.14,0.18,-11.82,29.81,38.65,prone
2023-10-02 00:40:13,0.0004,-0.0264,-1.0172,1.04,-2.08,0.37,-12.16,28.8,36.69,prone
2023-10-02 00:40:13,0.0061,-0.0322,-1.0198,1.1,-2.26,0.31,-11.88,29.38,37.99,prone
2023-10-02 00:40:13,-0.001,-0.0249,-1.0214,0.85,-2.14,0.12,-12.78,29.35,37.99,prone
2023-10-02 00:40:13,0.005,-0.0323,-1.0176,1.16,-2.01,0.24,-12.44,29.11,37.44,prone
2023-10-02 00:40:14,0.0021,-0.0273,-1.0183,0.98,-1.95,0.43,-12.54,28.34,37.67,prone
2023-10-02 00:40:14,-0.0012,-0.0258,-1.0186,0.92,-2.14,0.12,-12.21,29.69,38.0,prone
2023-10-02 00:40:14,0.0026,-0.0295,-1.0175,0.98,-2.26,0.31,-12.3,29.55,36.94,prone
2023-10-02 00:40:14,-0.0023,-0.0273,-1.0192,0.85,-2.14,0.24,-12.24,29.11,36.58,prone
2023-10-02 00:40:14,0.0056,-0.0294,-1.0182,0.92,-2.08,0.49,-12.23,29.14,36.93,prone
2023-10-02 00:40:14,-0.0056,-0.0259,-1.0184,1.16,-2.08,0.24,-12.87,29.3,37.96,prone
2023-10-02 00:40:14,0.0074,-0.0262,-1.0166,1.16,-2.01,0.18,-11.8,29.0,36.94,prone
2023-10-02 00:40:14,-0.01,-0.0316,-0.9998,0.73,-2.08,0.24,-11.71,28.98,36.47,prone
2023-10-02 00:40:14,0.0071,-0.03,-1.0132,0.98,-2.14,-0.06,-12.33,29.41,37.82,prone
2023-10-02 00:40:14,0.0028,-0.0292,-1.0146,0.98,-2.2,0.18,-12.28,29.71,38.04,prone
2023-10-02 00:40:15,-0.0034,-0.0265,-1.0189,1.16,-2.08,0.18,-12.26,29.25,36.87,prone
2023-10-02 00:40:15,0.0016,-0.0276,-1.0178,1.1,-2.14,0.31,-12.41,29.25,37.85,prone
2023-10-02 00:40:15,-0.0045,-0.0267,-1.019,1.16,-2.14,0.31,-12.6,29.82,37.59,prone
2023-10-02 00:40:15,0.0034,-0.0278,-1.0173,1.04,-2.08,0.31,-12.41,29.22,35.75,prone
2023-10-02 00:40:15,-0.0026,-0.0264,-1.0178,1.1,-1.95,0.24,-11.23,29.04,37.24,prone
2023-10-02 00:40:15,0.0006,-0.0271,-1.0181,1.1,-2.08,0.06,-11.83,28.97,37.06,prone
2023-10-02 00:40:15,-0.0033,-0.0259,-1.0168,1.04,-2.01,0.31,-11.72,29.61,37.67,prone
2023-10-02 00:40:15,0.0013,-0.0255,-1.019,1.1,-2.32,0.31,-12.3,28.99,36.94,prone
2023-10-02 00:40:15,0.0004,-0.0312,-1.0195,1.04,-2.08,0.24,-12.18,29.02,37.38,prone
2023-10-02 00:40:16,-0.0001,-0.024,-1.0178,1.04,-2.2,0.49,-12.04,29.11,38.1,prone
2023-10-02 00:40:16,-0.0017,-0.0292,-1.0182,1.16,-2.08,0.31,-11.4,28.93,37.05,prone
2023-10-02 00:40:16,0.001,-0.024,-1.0177,0.98,-2.2,0.31,-12.77,29.08,38.22,prone
2023-10-02 00:40:16,0.0,-0.0292,-1.0184,1.1,-2.01,0.18,-12.4,28.98,37.35,prone
2023-10-02 00:40:16,-0.0016,-0.0231,-1.0172,1.28,-2.08,0.06,-12.23,28.92,36.3,prone
2023-10-02 00:40:16,0.0029,-0.035,-1.0165,1.04,-2.08,0.06,-12.23,28.37,36.55,prone
2023-10-02 00:40:16,0.0006,-0.0238,-1.0171,0.92,-2.08,0.31,-12.41,28.92,38.54,prone
2023-10-02 00:40:16,0.0061,-0.0315,-1.0139,0.98,-2.01,0.31,-12.57,28.76,37.07,prone
2023-10-02 00:40:16,0.001,-0.0359,-1.0232,0.92,-2.32,0.61,-11.52,28.77,36.4,prone
2023-10-02 00:40:17,0.0027,-0.0259,-1.0205,0.98,-1.89,0.12,-12.33,29.02,37.66,prone
2023-10-02 00:40:17,-0.0081,-0.0272,-1.0267,0.79,-2.08,0.24,-12.46,28.92,37.34,prone
2023-10-02 00:40:17,0.009,-0.0337,-1.019,1.04,-2.08,0.18,-12.28,28.96,36.67,prone
2023-10-02 00:40:17,-0.0083,-0.0184,-1.0161,0.85,-2.14,0.43,-12.19,29.37,37.13,prone
2023-10-02 00:40:17,0.0005,-0.0352,-1.019,1.16,-2.08,0.18,-12.34,29.21,38.04,prone
2023-10-02 00:40:17,0.0001,-0.0226,-1.0197,0.98,-2.01,0.61,-12.66,29.31,37.48,prone
2023-10-02 00:40:17,-0.0038,-0.027,-1.0187,1.1,-2.08,0.24,-12.29,28.58,37.94,prone
2023-10-02 00:40:17,0.0037,-0.0278,-1.0181,0.92,-1.95,0.24,-12.57,29.5,37.85,prone
2023-10-02 00:40:17,-0.0044,-0.0295,-1.019,0.92,-1.95,0.24,-12.67,29.59,38.51,prone
2023-10-02 00:40:17,0.0006,-0.0276,-1.0178,1.04,-1.89,0.49,-12.07,28.83,38.13,prone
2023-10-02 00:40:18,0.0002,-0.0289,-1.0157,0.79,-2.32,0.12,-12.02,28.58,37.56,prone
2023-10-02 00:40:18,0.004,-0.0288,-1.0164,0.92,-1.89,0.49,-12.3,29.48,38.92,prone
2023-10-02 00:40:18,-0.0032,-0.0283,-1.0193,0.92,-2.26,0.31,-12.74,28.91,37.48,prone
2023-10-02 00:40:18,0.0009,-0.02,-1.0171,1.16,-2.08,0.12,-12.24,28.38,37.12,prone
2023-10-02 00:40:18,-0.0011,-0.0338,-1.0176,1.04,-1.89,0.12,-12.41,28.69,36.94,prone
2023-10-02 00:40:18,0.0006,-0.0261,-1.0205,0.92,-1.89,0.18,-12.11,29.04,37.67,prone
2023-10-02 00:40:18,-0.0022,-0.0283,-1.0178,1.22,-2.2,0.37,-11.8,28.87,37.68,prone
2023-10-02 00:40:18,0.0001,-0.0273,-1.0183,1.1,-2.08,0.24,-11.96,28.92,37.93,prone
2023-10-02 00:40:18,0.0005,-0.0299,-1.0179,1.1,-2.14,0.18,-12.3,28.97,37.87,prone
2023-10-02 00:40:19,-0.0016,-0.025,-1.0201,0.92,-2.2,0.06,-11.96,28.76,36.52,prone
2023-10-02 00:40:19,0.0022,-0.0354,-1.0195,1.04,-2.01,0.24,-11.93,28.65,38.26,prone
2023-10-02 00:40:19,-0.0002,-0.0245,-1.0188,0.85,-1.89,0.37,-12.52,29.36,37.38,prone
2023-10-02 00:40:19,-0.0013,-0.0342,-1.0195,1.04,-2.08,0.31,-12.44,28.7,36.43,prone
2023-10-02 00:40:19,0.0013,-0.0242,-1.0195,0.85,-2.14,0.18,-12.27,28.71,37.63,prone
2023-10-02 00:40:19,-0.0024,-0.0258,-1.0195,0.98,-2.2,0.12,-12.15,28.58,38.33,prone
2023-10-02 00:40:19,0.0002,-0.0299,-1.0211,0.85,-2.2,0.43,-12.79,28.67,38.11,prone
2023-10-02 00:40:19,0.0107,-0.0308,-1.0189,0.73,-2.14,0.06,-12.37,28.27,36.6,prone
2023-10-02 00:40:19,-0.0071,-0.0295,-1.0275,0.79,-2.14,0.37,-12.54,28.58,36.45,prone
2023-10-02 00:40:20,-0.0004,-0.0364,-1.0288,0.98,-1.95,0.0,-12.82,29.57,37.41,prone
2023-10-02 00:40:20,0.0077,-0.0249,-1.0153,1.1,-2.01,0.31,-11.88,29.42,36.87,prone
2023-10-02 00:40:20,-0.0127,-0.0345,-1.0227,0.98,-2.08,0.24,-11.78,28.65,36.72,prone
2023-10-02 00:40:20,0.006,-0.0222,-1.0159,0.98,-2.14,0.0,-12.44,28.54,36.83,prone
2023-10-02 00:40:20,-0.0043,-0.0305,-1.019,0.98,-2.14,0.31,-12.24,29.13,37.85,prone
2023-10-02 00:40:20,-0.0006,-0.0266,-1.017,1.04,-2.08,0.18,-12.16,28.03,37.37,prone
2023-10-02 00:40:20,0.0017,-0.0264,-1.0182,0.98,-2.08,0.18,-11.77,28.15,37.59,prone
2023-10-02 00:40:20,-0.0043,-0.0283,-1.0197,1.04,-2.08,0.37,-12.49,28.6,37.12,prone
2023-10-02 00:40:20,0.0021,-0.0265,-1.0172,1.1,-1.95,0.24,-11.96,28.49,36.5,prone
2023-10-02 00:40:20,-0.0037,-0.0273,-1.0194,1.16,-2.08,0.31,-12.38,28.58,37.16,prone
2023-10-02 00:40:21,0.0012,-0.0275,-1.0188,1.04,-1.95,0.37,-12.54,29.35,36.47,prone
2023-10-02 00:40:21,-0.0009,-0.0276,-1.0172,0.85,-2.01,0.37,-12.05,29.8,38.21,prone
2023-10-02 00:40:21,-0.0009,-0.0269,-1.021,1.1,-2.14,0.12,-12.54,28.03,37.65,prone
2023-10-02 00:40:21,0.0005,-0.0269,-1.0192,1.16,-2.14,0.24,-12.13,29.31,38.5,prone
2023-10-02 00:40:21,-0.0026,-0.0261,-1.0206,0.98,-2.2,0.31,-12.35,29.37,38.02,prone
2023-10-02 00:40:21,0.001,-0.028,-1.0179,0.98,-2.26,0.06,-11.85,28.17,37.95,prone
2023-10-02 00:40:21,-0.0017,-0.027,-1.019,0.98,-2.2,0.24,-11.89,28.7,37.12,prone
2023-10-02 00:40:21,0.0005,-0.0291,-1.0179,0.85,-1.95,0.31,-11.79,28.66,38.45,prone
2023-10-02 00:40:21,-0.0012,-0.0266,-1.0175,0.92,-2.01,0.31,-11.93,28.96,37.9,prone
2023-10-02 00:40:22,0.0006,-0.0275,-1.0176,1.1,-2.01,0.06,-11.95,28.64,36.8,prone
2023-10-02 00:40:22,-0.0013,-0.0273,-1.0186,0.92,-1.95,0.37,-11.85,28.96,38.13,prone
2023-10-02 00:40:22,0.0005,-0.0303,-1.0182,1.04,-2.08,0.31,-12.16,29.63,37.81,prone
2023-10-02 00:40:22,0.0007,-0.0244,-1.0183,0.98,-2.14,0.06,-12.07,28.83,37.23,prone
2023-10-02 00:40:22,0.0005,-0.0289,-1.0182,0.98,-2.14,0.43,-12.38,28.86,37.5,prone
2023-10-02 00:40:22,-0.0015,-0.0272,-1.019,0.92,-2.01,0.18,-12.26,29.0,37.67,prone
2023-10-02 00:40:22,0.0021,-0.0283,-1.0188,0.98,-1.95,0.24,-12.29,29.47,37.56,prone
2023-10-02 00:40:22,-0.0018,-0.0265,-1.0187,0.98,-2.14,0.31,-11.78,28.65,36.05,prone
2023-10-02 00:40:22,0.001,-0.0302,-1.017,0.92,-2.14,0.31,-12.04,29.13,36.78,prone
2023-10-02 00:40:23,0.0005,-0.0258,-1.0166,0.98,-1.95,0.18,-12.88,29.31,37.44,prone
2023-10-02 00:40:23,-0.0005,-0.031,-1.0193,0.85,-2.08,0.24,-11.85,28.58,38.34,prone
2023-10-02 00:40:23,0.0015,-0.0239,-1.0168,0.98,-2.2,0.24,-11.91,29.06,37.73,prone
2023-10-02 00:40:23,0.0,-0.0315,-1.0194,0.98,-2.2,0.31,-12.28,28.77,38.27,prone
2023-10-02 00:40:23,0.0005,-0.0269,-1.0177,0.79,-1.95,0.31,-12.01,29.09,37.62,prone
2023-10-02 00:40:23,0.0002,-0.0277,-1.0189,1.04,-2.14,0.24,-11.73,28.83,36.74,prone
2023-10-02 00:40:23,0.0001,-0.0289,-1.0175,1.1,-1.95,0.24,-12.05,29.15,37.78,prone
2023-10-02 00:40:23,0.0001,-0.0267,-1.0178,0.79,-1.89,0.24,-12.6,29.06,39.1,prone
2023-10-02 00:40:23,0.0,-0.0287,-1.0189,0.98,-1.95,0.31,-12.23,28.67,37.39,prone
2023-10-02 00:40:23,0.0016,-0.0298,-1.0168,1.04,-2.08,0.31,-11.89,28.66,37.56,prone
2023-10-02 00:40:24,-0.0038,-0.0242,-1.0192,0.98,-2.14,0.18,-11.95,29.59,38.77,prone
2023-10-02 00:40:24,0.0039,-0.0321,-1.0186,0.92,-2.14,0.24,-12.32,29.2,37.11,prone
2023-10-02 00:40:24,0.0004,-0.0258,-1.017,0.79,-1.89,0.31,-12.16,28.47,38.15,prone
2023-10-02 00:40:24,0.0006,-0.0286,-1.0179,0.92,-1.95,0.31,-12.73,29.3,38.65,prone
2023-10-02 00:40:24,-0.0009,-0.0265,-1.0184,1.04,-2.2,0.31,-12.67,29.37,37.39,prone
2023-10-02 00:40:24,0.0004,-0.0293,-1.0173,0.73,-2.08,0.06,-12.82,28.86,36.54,prone
2023-10-02 00:40:24,0.0005,-0.0278,-1.0181,0.92,-2.08,0.18,-12.81,29.08,37.74,prone
2023-10-02 00:40:24,-0.0021,-0.0265,-1.0186,0.98,-1.95,0.18,-12.94,28.98,38.23,prone
2023-10-02 00:40:24,0.0017,-0.0286,-1.0182,0.92,-2.01,0.06,-12.7,28.85,37.0,prone
2023-10-02 00:40:25,-0.0005,-0.028,-1.0193,0.98,-2.08,0.37,-12.15,28.56,36.98,prone
2023-10-02 00:40:25,0.0006,-0.027,-1.0179,0.92,-2.14,0.24,-12.21,29.36,37.62,prone
2023-10-02 00:40:25,-0.0026,-0.0273,-1.0192,0.98,-2.14,0.24,-12.67,28.82,37.96,prone
2023-10-02 00:40:25,0.0015,-0.0275,-1.0179,0.98,-2.2,0.12,-12.67,28.44,37.15,prone
2023-10-02 00:40:25,-0.001,-0.0289,-1.017,1.04,-2.2,0.24,-12.38,28.71,38.46,prone
2023-10-02 00:40:25,0.001,-0.0273,-1.0183,1.04,-2.08,0.06,-13.28,29.7,39.23,prone
2023-10-02 00:40:25,0.0005,-0.0272,-1.0176,1.04,-1.95,0.31,-12.62,28.47,36.88,prone
2023-10-02 00:40:25,-0.0013,-0.0275,-1.0192,1.1,-2.08,0.43,-12.04,29.15,37.46,prone
2023-10-02 00:40:25,0.0029,-0.0276,-1.0176,1.1,-2.14,0.18,-12.77,28.91,38.28,prone
2023-10-02 00:40:26,-0.0033,-0.0289,-1.0184,1.04,-2.01,0.12,-13.05,28.88,38.88,prone
2023-10-02 00:40:26,0.0006,-0.0258,-1.0199,0.92,-2.01,0.24,-12.63,29.16,37.77,prone
2023-10-02 00:40:26,-0.005,-0.0277,-1.0187,0.67,-1.89,0.18,-12.34,29.0,38.4,prone
2023-10-02 00:40:26,0.0009,-0.0272,-1.0206,1.04,-2.08,0.24,-11.91,29.17,37.93,prone
2023-10-02 00:40:26,0.0005,-0.0315,-1.012,1.1,-2.01,0.37,-11.9,28.72,37.49,prone
2023-10-02 00:40:26,0.0011,-0.0236,-1.0193,1.1,-2.01,0.43,-12.13,29.24,37.43,prone
2023-10-02 00:40:26,-0.0054,-0.0267,-1.0197,1.04,-2.01,0.31,-11.96,29.14,38.89,prone
2023-10-02 00:40:26,0.0056,-0.0393,-1.0183,0.79,-2.01,0.18,-12.93,29.38,37.27,prone
2023-10-02 00:40:26,-0.0087,-0.027,-1.0165,1.04,-2.14,0.55,-11.69,29.04,37.98,prone
2023-10-02 00:40:26,0.0057,-0.031,-1.0153,0.79,-2.08,0.18,-12.44,29.6,38.29,prone
2023-10-02 00:40:27,0.0023,-0.0286,-1.0193,0.79,-2.01,0.49,-12.1,29.49,37.21,prone
2023-10-02 00:40:27,-0.0032,-0.0271,-1.0162,1.04,-2.08,0.31,-11.99,29.09,38.2,prone
2023-10-02 00:40:27,0.0023,-0.0282,-1.0176,0.79,-2.14,0.12,-11.88,29.13,37.85,prone
2023-10-02 00:40:27,0.0004,-0.0259,-1.0193,1.04,-2.08,0.43,-12.04,29.09,38.31,prone
2023-10-02 00:40:27,0.001,-0.0309,-1.0179,0.98,-2.08,0.18,-12.02,29.19,36.96,prone
2023-10-02 00:40:27,-0.0032,-0.0247,-1.0183,0.98,-1.95,0.06,-11.65,29.0,38.24,prone
2023-10-02 00:40:27,0.0009,-0.0298,-1.0186,0.98,-2.14,0.12,-12.18,29.21,38.12,prone
2023-10-02 00:40:27,0.0005,-0.0258,-1.0182,0.98,-2.08,0.31,-12.61,29.05,38.29,prone
2023-10-02 00:40:27,0.0005,-0.0283,-1.0182,1.16,-2.08,0.12,-12.35,29.04,37.15,prone
2023-10-02 00:40:28,0.0013,-0.0275,-1.0183,0.92,-2.14,0.31,-12.51,29.24,38.07,prone
2023-10-02 00:40:28,-0.0001,-0.0255,-1.0183,1.04,-2.14,0.31,-12.21,29.55,38.44,prone
2023-10-02 00:40:28,0.0005,-0.0287,-1.0186,0.98,-2.14,0.24,-12.15,29.5,36.0,prone
2023-10-02 00:40:28,0.0001,-0.0266,-1.0181,0.98,-2.26,0.31,-12.43,29.15,38.37,prone
2023-10-02 00:40:28,0.0011,-0.0291,-1.019,1.1,-2.08,0.18,-12.35,29.39,37.73,prone
2023-10-02 00:40:28,-0.001,-0.0276,-1.0189,1.04,-2.26,0.18,-12.49,29.38,39.15,prone
2023-10-02 00:40:28,0.0007,-0.0272,-1.0175,1.1,-2.08,0.24,-12.48,28.67,37.77,prone
2023-10-02 00:40:28,0.0001,-0.0267,-1.0187,1.04,-2.08,0.12,-12.84,29.57,37.84,prone
2023-10-02 00:40:28,0.0005,-0.0282,-1.0171,1.1,-2.14,0.31,-12.92,29.72,37.4,prone
2023-10-02 00:40:29,0.0001,-0.0269,-1.0187,0.98,-2.01,0.37,-12.26,29.1,37.98,prone
2023-10-02 00:40:29,0.0002,-0.028,-1.0188,0.85,-2.08,0.37,-12.4,28.81,37.48,prone
2023-10-02 00:40:29,0.0004,-0.028,-1.0165,1.1,-2.32,0.31,-12.35,29.03,37.38,prone
2023-10-02 00:40:29,0.004,-0.0275,-1.0194,0.98,-2.2,0.06,-12.5,29.1,36.55,prone
2023-10-02 00:40:29,-0.0011,-0.0248,-1.0179,0.92,-2.2,0.31,-11.93,29.22,36.9,prone
2023-10-02 00:40:29,0.0027,-0.0286,-1.0164,1.1,-2.26,0.12,-12.46,29.52,37.32,prone
2023-10-02 00:40:29,-0.0004,-0.0283,-1.0176,0.85,-2.2,0.37,-12.77,29.0,36.88,prone
2023-10-02 00:40:29,0.0005,-0.0271,-1.0183,0.98,-2.08,0.18,-12.11,29.37,36.89,prone
2023-10-02 00:40:29,0.0038,-0.0251,-1.0183,1.16,-2.2,0.06,-12.37,29.14,36.58,prone
2023-10-02 00:40:29,-0.0027,-0.0297,-1.0188,0.98,-2.08,0.43,-12.59,28.6,38.13,prone
2023-10-02 00:40:30,-0.0043,-0.0211,-1.0194,0.98,-2.08,0.18,-12.5,29.71,37.76,prone
2023-10-02 00:40:30,-0.0065,-0.0338,-1.0206,0.92,-2.01,0.18,-12.35,28.89,36.87,prone
2023-10-02 00:40:30,0.0078,-0.0255,-1.017,1.16,-2.14,0.24,-12.6,29.52,37.74,prone
2023-10-02 00:40:30,-0.0054,-0.0298,-1.0192,0.98,-2.2,0.31,-12.21,29.46,37.92,prone
2023-10-02 00:40:30,0.0043,-0.0292,-1.0198,1.16,-2.26,0.12,-11.77,28.69,38.0,prone
2023-10-02 00:40:30,0.0009,-0.0282,-1.0203,1.04,-2.26,0.31,-12.7,29.32,37.4,prone
2023-10-02 00:40:30,0.0007,-0.0294,-1.0187,1.04,-2.14,0.18,-12.33,29.37,37.67,prone
2023-10-02 00:40:30,0.0023,-0.0259,-1.0181,1.1,-2.2,0.31,-12.29,28.72,37.41,prone
2023-10-02 00:40:30,-0.0021,-0.0284,-1.0178,1.1,-2.2,0.12,-11.76,28.65,35.83,prone
2023-10-02 00:40:31,0.0017,-0.0265,-1.0178,1.22,-2.08,0.31,-12.88,29.3,37.99,prone
2023-10-02 00:40:31,-0.0026,-0.0272,-1.0205,1.16,-2.01,0.31,-12.13,29.38,36.73,prone
2023-10-02 00:40:31,0.0022,-0.028,-1.0179,1.1,-2.14,0.37,-12.73,28.55,37.27,prone
2023-10-02 00:40:31,-0.0018,-0.0266,-1.02,1.16,-2.2,0.31,-12.46,29.16,36.85,prone
2023-10-02 00:40:31,0.0011,-0.0278,-1.0165,1.22,-2.2,0.24,-11.89,29.31,37.67,prone
2023-10-02 00:40:31,0.0007,-0.0273,-1.0178,0.92,-2.14,0.43,-12.57,28.61,37.74,prone
2023-10-02 00:40:31,0.0002,-0.0273,-1.0182,1.16,-2.26,0.24,-12.24,29.88,38.48,prone
2023-10-02 00:40:31,0.0013,-0.0272,-1.0176,0.98,-2.14,0.31,-12.33,29.74,38.34,prone
2023-10-02 00:40:31,0.0005,-0.0282,-1.0189,0.98,-1.89,0.37,-12.46,28.94,38.49,prone
2023-10-02 00:40:32,0.0011,-0.0272,-1.0188,0.92,-2.14,0.18,-12.15,28.83,37.59,prone
2023-10-02 00:40:32,0.0002,-0.0277,-1.0188,0.79,-2.14,0.24,-12.5,29.21,38.32,prone
2023-10-02 00:40:32,0.0009,-0.0272,-1.0184,0.92,-2.08,0.31,-12.46,29.36,38.27,prone
2023-10-02 00:40:32,0.0007,-0.0276,-1.0182,0.92,-2.44,0.37,-12.02,29.11,37.56,prone
2023-10-02 00:40:32,0.0006,-0.0283,-1.0181,1.1,-2.2,0.18,-11.96,29.87,38.78,prone
2023-10-02 00:40:32,0.0006,-0.0269,-1.0184,1.1,-2.14,0.31,-12.65,29.14,38.1,prone
2023-10-02 00:40:32,0.0006,-0.0273,-1.0176,1.1,-2.32,0.18,-12.34,29.3,38.38,prone
2023-10-02 00:40:32,0.0012,-0.0278,-1.0189,1.22,-2.26,0.31,-11.9,28.82,36.9,prone
2023-10-02 00:40:32,0.0005,-0.0276,-1.019,1.04,-2.08,0.31,-12.7,29.28,38.15,prone
2023-10-02 00:40:32,0.0007,-0.0272,-1.0182,0.85,-2.2,0.0,-12.32,29.44,37.5,prone
2023-10-02 00:40:33,0.0004,-0.0266,-1.0183,0.98,-2.14,0.31,-11.93,28.72,38.02,prone
2023-10-02 00:40:33,0.0007,-0.0281,-1.0183,1.16,-2.26,0.12,-11.78,29.1,38.07,prone
2023-10-02 00:40:33,0.0005,-0.027,-1.0182,1.1,-2.08,0.24,-12.33,29.59,37.83,prone
2023-10-02 00:40:33,0.0006,-0.0265,-1.0182,1.22,-2.32,0.24,-12.41,28.49,37.5,prone
2023-10-02 00:40:33,0.001,-0.0267,-1.0181,1.04,-2.14,0.31,-12.6,28.74,37.67,prone
2023-10-02 00:40:33,0.0004,-0.0278,-1.0184,1.04,-2.14,0.18,-12.74,29.6,37.9,prone
2023-10-02 00:40:33,0.0009,-0.0278,-1.0188,0.98,-2.01,0.31,-12.01,29.21,37.23,prone
2023-10-02 00:40:33,0.0001,-0.026,-1.0205,1.04,-2.2,0.24,-12.1,28.94,37.78,prone
2023-10-02 00:40:33,0.0009,-0.0273,-1.0188,1.04,-2.08,0.31,-12.44,29.19,38.22,prone
2023-10-02 00:40:34,0.0005,-0.0272,-1.0205,1.04,-2.08,0.24,-12.57,29.52,37.79,prone
2023-10-02 00:40:34,0.0009,-0.0275,-1.0172,0.73,-2.08,0.18,-12.54,29.13,36.85,prone
2023-10-02 00:40:34,0.0006,-0.0267,-1.0187,0.98,-2.14,0.18,-12.59,28.85,37.74,prone
2023-10-02 00:40:34,0.001,-0.0277,-1.0186,1.1,-2.26,0.06,-12.5,29.36,38.72,prone
2023-10-02 00:40:34,0.001,-0.0282,-1.0182,0.92,-2.2,0.24,-12.13,28.99,37.83,prone
2023-10-02 00:40:34,0.0006,-0.0269,-1.0183,0.85,-2.14,0.24,-12.24,28.19,37.27,prone
2023-10-02 00:40:34,0.0005,-0.0275,-1.019,0.79,-2.01,0.12,-12.66,29.58,38.92,prone
2023-10-02 00:40:34,0.0005,-0.0275,-1.0183,0.92,-2.01,0.31,-12.41,28.99,39.12,prone
2023-10-02 00:40:34,0.0006,-0.0272,-1.0186,1.1,-2.2,0.24,-12.21,28.64,37.32,prone
2023-10-02 00:40:34,0.0005,-0.0271,-1.0187,1.04,-2.14,0.31,-12.4,29.63,38.24,prone
2023-10-02 00:40:35,0.0005,-0.0281,-1.0183,0.98,-2.01,0.31,-12.4,30.04,39.03,prone
2023-10-02 00:40:35,0.0005,-0.0271,-1.0183,0.98,-1.95,0.18,-12.61,29.43,38.54,prone
2023-10-02 00:40:35,0.0005,-0.028,-1.0181,1.04,-2.14,0.24,-11.77,28.97,37.94,prone
2023-10-02 00:40:35,0.0009,-0.0273,-1.0182,1.1,-2.14,0.31,-12.43,29.88,38.28,prone
2023-10-02 00:40:35,0.0005,-0.0276,-1.0184,1.04,-2.14,0.24,-12.96,29.42,37.96,prone
2023-10-02 00:40:35,0.0006,-0.0276,-1.0188,0.92,-2.14,0.24,-12.38,29.5,37.32,prone
2023-10-02 00:40:35,0.0005,-0.0266,-1.0184,0.79,-2.01,0.24,-12.01,29.75,37.5,prone
2023-10-02 00:40:35,0.0007,-0.0275,-1.0184,1.16,-2.08,0.31,-12.28,29.81,38.87,prone
2023-10-02 00:40:35,0.0006,-0.0282,-1.0179,0.98,-2.08,0.43,-11.82,29.11,37.45,prone
2023-10-02 00:40:36,0.0009,-0.0269,-1.0184,1.04,-2.08,0.31,-11.85,29.3,37.28,prone
2023-10-02 00:40:36,0.0007,-0.027,-1.0199,1.1,-2.01,0.37,-11.91,29.46,38.89,prone
2023-10-02 00:40:36,0.0005,-0.027,-1.0138,1.1,-2.08,0.24,-12.55,29.09,37.52,prone
2023-10-02 00:40:36,0.0024,-0.0305,-1.0175,1.04,-2.08,0.31,-12.23,29.13,37.13,prone
2023-10-02 00:40:36,0.0009,-0.0267,-1.0171,0.98,-2.01,0.43,-12.51,29.81,37.87,prone
2023-10-02 00:40:36,-0.0061,-0.0282,-1.0167,1.04,-2.14,0.24,-12.44,29.65,38.4,prone
2023-10-02 00:40:36,0.0029,-0.0287,-1.0187,0.92,-2.01,0.18,-12.13,28.91,37.13,prone
2023-10-02 00:40:36,0.001,-0.0273,-1.0188,1.28,-2.2,0.31,-12.18,29.92,37.55,prone
2023-10-02 00:40:36,0.0004,-0.0294,-1.0188,0.85,-2.01,0.24,-12.26,29.65,37.56,prone
2023-10-02 00:40:37,0.0015,-0.0272,-1.0195,1.04,-2.08,0.24,-12.06,29.13,36.51,prone
2023-10-02 00:40:37,0.001,-0.028,-1.0193,1.1,-2.01,0.31,-12.04,28.59,37.29,prone
2023-10-02 00:40:37,0.0004,-0.0275,-1.0194,0.92,-1.95,0.37,-12.4,29.25,37.46,prone
2023-10-02 00:40:37,0.0012,-0.0292,-1.0177,0.98,-2.08,0.31,-12.51,29.71,37.28,prone
2023-10-02 00:40:37,0.001,-0.0273,-1.0187,0.92,-2.2,0.31,-12.02,28.81,37.12,prone
2023-10-02 00:40:37,0.0006,-0.0278,-1.0188,1.1,-2.08,0.31,-12.17,29.54,37.28,prone
2023-10-02 00:40:37,0.0004,-0.0276,-1.0198,0.92,-1.95,0.37,-12.19,29.99,37.74,prone
2023-10-02 00:40:37,0.001,-0.0282,-1.019,1.04,-2.14,0.12,-12.4,29.04,37.79,prone
2023-10-02 00:40:37,0.0005,-0.0278,-1.019,1.16,-2.08,0.24,-11.93,29.19,37.43,prone
2023-10-02 00:40:37,0.0006,-0.0271,-1.0186,1.04,-2.01,0.24,-12.17,29.49,37.34,prone
2023-10-02 00:40:38,0.0007,-0.0278,-1.0183,1.04,-2.08,0.31,-12.21,29.66,37.28,prone
2023-10-02 00:40:38,0.0002,-0.0262,-1.0179,1.04,-2.08,0.18,-12.15,28.83,36.74,prone
2023-10-02 00:40:38,0.0012,-0.0284,-1.0186,1.16,-2.08,0.24,-12.43,29.31,37.78,prone
2023-10-02 00:40:38,0.0002,-0.0262,-1.0194,0.98,-2.01,0.43,-12.41,30.08,38.15,prone
2023-10-02 00:40:38,0.0012,-0.0275,-1.0184,1.1,-1.89,0.31,-12.73,29.24,36.83,prone
2023-10-02 00:40:38,-0.0006,-0.0265,-1.0211,1.16,-2.26,0.24,-11.9,29.81,37.67,prone
2023-10-02 00:40:38,0.0007,-0.0265,-1.0175,1.04,-2.08,0.31,-12.12,29.91,39.1,prone
2023-10-02 00:40:38,0.0001,-0.0272,-1.0197,0.98,-1.95,0.24,-12.61,29.17,37.27,prone
2023-10-02 00:40:38,0.0006,-0.0278,-1.0167,1.16,-2.01,0.31,-11.83,28.93,38.13,prone
2023-10-02 00:40:39,0.0007,-0.0278,-1.0176,0.98,-2.01,0.37,-12.46,29.76,37.43,prone
2023-10-02 00:40:39,0.0005,-0.0281,-1.0179,1.04,-2.08,0.37,-12.34,28.99,37.56,prone
2023-10-02 00:40:39,0.0006,-0.0277,-1.0177,0.79,-1.83,0.18,-12.01,29.64,37.85,prone
2023-10-02 00:40:39,0.0009,-0.0276,-1.019,0.98,-2.01,0.24,-12.17,29.05,37.5,prone
2023-10-02 00:40:39,0.0004,-0.027,-1.0187,0.98,-2.08,0.24,-12.35,30.36,38.42,prone
2023-10-02 00:40:39,0.0007,-0.0273,-1.0178,0.98,-2.01,0.18,-12.56,29.5,37.13,prone
2023-10-02 00:40:39,0.0001,-0.0267,-1.0192,1.04,-2.08,0.18,-11.77,28.71,36.87,prone
2023-10-02 00:40:39,0.001,-0.028,-1.0175,1.04,-1.95,0.31,-11.9,29.41,37.6,prone
2023-10-02 00:40:39,0.0004,-0.0272,-1.019,0.98,-1.89,0.31,-12.59,29.39,37.87,prone
2023-10-02 00:40:40,0.0006,-0.0272,-1.0182,1.04,-2.08,0.18,-12.33,29.05,37.92,prone
2023-10-02 00:40:40,0.0005,-0.028,-1.0173,0.92,-1.83,0.31,-11.9,29.26,36.65,prone
2023-10-02 00:40:40,0.0009,-0.0277,-1.0195,1.04,-2.01,0.18,-12.15,29.46,37.44,prone
2023-10-02 00:40:40,0.0006,-0.0269,-1.0192,0.98,-2.01,0.31,-12.02,29.04,37.0,prone
2023-10-02 00:40:40,0.0004,-0.027,-1.0184,1.04,-2.08,0.37,-12.05,29.22,37.59,prone
2023-10-02 00:40:40,0.0009,-0.0267,-1.0186,1.16,-2.01,0.18,-12.04,29.46,37.21,prone
2023-10-02 00:40:40,0.0004,-0.0275,-1.0184,0.98,-2.26,0.31,-12.07,29.32,37.61,prone
2023-10-02 00:40:40,0.0005,-0.027,-1.019,0.92,-2.2,0.24,-11.73,28.65,37.16,prone
2023-10-02 00:40:40,0.0,-0.0273,-1.0186,0.92,-2.08,0.24,-11.99,29.52,37.84,prone
2023-10-02 00:40:40,0.0006,-0.0281,-1.0177,1.22,-2.08,0.37,-12.98,29.98,38.59,prone
2023-10-02 00:40:41,0.0007,-0.0271,-1.0183,1.04,-2.14,0.31,-12.78,29.09,38.1,prone
2023-10-02 00:40:41,0.0005,-0.0282,-1.0194,0.85,-2.2,0.24,-12.9,29.49,38.55,prone
2023-10-02 00:40:41,0.001,-0.0269,-1.0175,0.98,-2.01,0.24,-12.74,29.65,39.89,prone
2023-10-02 00:40:41,0.0,-0.0284,-1.0175,0.98,-2.14,0.24,-12.15,29.41,37.24,prone
2023-10-02 00:40:41,0.0011,-0.0269,-1.0176,0.92,-2.08,0.37,-12.44,29.25,38.09,prone
2023-10-02 00:40:41,0.0,-0.0269,-1.0188,0.92,-2.01,0.24,-12.21,29.94,37.57,prone
2023-10-02 00:40:41,0.0006,-0.0284,-1.0195,0.98,-2.08,0.31,-12.51,29.21,37.07,prone
2023-10-02 00:40:41,0.0002,-0.0273,-1.0189,0.85,-2.08,0.24,-12.6,29.25,37.67,prone
2023-10-02 00:40:41,0.0009,-0.0281,-1.0181,0.98,-2.14,0.18,-12.88,29.33,38.53,prone
2023-10-02 00:40:42,0.0,-0.0266,-1.0187,0.79,-2.01,0.12,-12.52,29.43,38.57,prone
2023-10-02 00:40:42,0.001,-0.0283,-1.0187,0.79,-2.32,0.31,-12.01,29.1,38.42,prone
2023-10-02 00:40:42,0.0007,-0.0275,-1.0187,1.04,-2.14,0.12,-11.94,29.27,37.65,prone
2023-10-02 00:40:42,0.0004,-0.0273,-1.0189,1.16,-2.01,0.24,-12.54,29.15,38.28,prone
2023-10-02 00:40:42,0.0006,-0.027,-1.0164,1.22,-2.2,0.37,-12.35,29.72,37.71,prone
2023-10-02 00:40:42,0.0006,-0.0269,-1.0189,0.98,-2.2,0.24,-12.37,29.43,36.74,prone
2023-10-02 00:40:42,0.0006,-0.0275,-1.0193,1.04,-2.26,0.31,-12.41,28.96,37.26,prone
2023-10-02 00:40:42,-0.0002,-0.0277,-1.0181,0.98,-2.14,0.31,-11.89,29.83,38.0,prone
2023-10-02 00:40:42,0.0006,-0.0281,-1.0179,0.98,-2.08,0.12,-12.26,29.09,36.83,prone
2023-10-02 00:40:43,0.0007,-0.0271,-1.0186,1.04,-2.14,0.24,-12.05,29.1,37.87,prone
2023-10-02 00:40:43,-0.0001,-0.028,-1.0179,1.04,-2.2,0.24,-12.46,29.61,39.1,prone
2023-10-02 00:40:43,0.0006,-0.0269,-1.0171,1.1,-2.26,0.18,-12.43,29.5,37.66,prone
2023-10-02 00:40:43,0.0005,-0.0265,-1.0195,0.98,-2.08,0.31,-12.29,29.28,37.32,prone
2023-10-02 00:40:43,0.0007,-0.0281,-1.0173,0.98,-2.08,0.49,-12.06,29.38,37.56,prone
2023-10-02 00:40:43,0.0002,-0.0271,-1.0187,1.16,-2.08,0.06,-13.0,29.99,38.11,prone
2023-10-02 00:40:43,0.0006,-0.0282,-1.0198,0.85,-2.08,0.0,-12.68,29.39,37.79,prone
2023-10-02 00:40:43,0.0005,-0.0273,-1.0177,1.1,-2.14,0.37,-12.34,29.24,37.83,prone
2023-10-02 00:40:43,-0.0004,-0.0273,-1.0206,1.28,-2.2,0.31,-12.02,29.57,38.0,prone
2023-10-02 00:40:43,0.0005,-0.0271,-1.0181,1.1,-2.08,0.31,-12.02,29.1,37.29,prone
2023-10-02 00:40:44,-0.0001,-0.0271,-1.0184,1.1,-2.32,0.31,-11.98,29.32,37.68,prone
2023-10-02 00:40:44,0.0015,-0.0267,-1.0189,1.04,-1.95,0.18,-12.54,29.49,38.26,prone
2023-10-02 00:40:44,0.0006,-0.0265,-1.0186,0.85,-2.14,0.06,-12.93,28.8,37.55,prone
2023-10-02 00:40:44,0.0007,-0.0278,-1.0172,0.92,-2.08,0.24,-12.7,29.02,37.35,prone
2023-10-02 00:40:44,0.0004,-0.0273,-1.0187,0.92,-2.32,0.24,-12.34,29.48,37.38,prone
2023-10-02 00:40:44,0.0005,-0.0278,-1.0173,1.04,-2.38,0.12,-12.76,29.97,38.27,prone
2023-10-02 00:40:44,0.0005,-0.027,-1.0187,1.1,-2.32,0.24,-11.55,29.19,37.17,prone
2023-10-02 00:40:44,0.0005,-0.0277,-1.017,0.92,-2.26,0.18,-11.73,28.98,37.82,prone
2023-10-02 00:40:44,0.0006,-0.0275,-1.019,0.79,-2.14,0.24,-12.39,29.5,38.89,prone
2023-10-02 00:40:45,0.0004,-0.0283,-1.0187,1.04,-2.26,0.31,-12.62,29.03,36.93,prone
2023-10-02 00:40:45,0.0013,-0.028,-1.0167,0.92,-2.44,0.24,-12.4,28.78,36.33,prone
2023-10-02 00:40:45,0.0004,-0.027,-1.0182,1.04,-2.14,0.18,-12.45,29.85,37.28,prone
2023-10-02 00:40:45,0.0007,-0.027,-1.0186,0.98,-2.2,0.31,-12.29,29.32,38.87,prone
2023-10-02 00:40:45,0.0005,-0.027,-1.0179,0.98,-2.32,0.12,-11.6,28.56,38.57,prone
2023-10-02 00:40:45,0.0005,-0.0277,-1.0186,1.16,-2.32,0.31,-12.19,29.2,37.67,prone
2023-10-02 00:40:45,0.0015,-0.0272,-1.0186,0.98,-2.32,0.18,-12.56,29.61,38.39,prone
2023-10-02 00:40:45,0.0006,-0.0281,-1.0192,1.1,-2.26,0.24,-12.0,29.71,38.4,prone
2023-10-02 00:40:45,0.0006,-0.0273,-1.0184,0.98,-2.26,0.12,-12.04,29.17,37.52,prone
2023-10-02 00:40:46,0.0006,-0.0278,-1.0187,0.92,-2.26,0.24,-12.39,29.36,38.22,prone
2023-10-02 00:40:46,0.0006,-0.0283,-1.021,1.1,-2.26,0.24,-13.13,29.53,38.55,prone
2023-10-02 00:40:46,0.0005,-0.0273,-1.0184,1.04,-2.26,0.24,-12.35,28.47,37.65,prone
2023-10-02 00:40:46,0.0005,-0.0264,-1.0203,1.04,-2.38,0.31,-11.91,29.52,38.7,prone
2023-10-02 00:40:46,0.0006,-0.0273,-1.0193,0.98,-2.44,0.12,-12.24,29.68,37.59,prone
2023-10-02 00:40:46,0.001,-0.0272,-1.0175,1.04,-2.32,0.18,-12.6,28.94,37.07,prone
2023-10-02 00:40:46,0.0007,-0.0273,-1.0161,0.98,-2.38,0.18,-12.52,29.3,37.85,prone
2023-10-02 00:40:46,0.0,-0.0267,-1.0186,1.04,-2.32,0.06,-12.63,29.48,38.15,prone
2023-10-02 00:40:46,0.0006,-0.0284,-1.0188,0.98,-2.32,0.31,-12.32,29.41,37.26,prone
2023-10-02 00:40:46,0.0007,-0.028,-1.019,0.98,-2.26,0.18,-12.19,28.69,37.74,prone
2023-10-02 00:40:47,-0.0011,-0.0281,-1.0173,1.04,-2.08,0.24,-12.34,29.65,37.95,prone
2023-10-02 00:40:47,0.0007,-0.0283,-1.0173,1.1,-2.38,0.31,-12.85,29.55,38.57,prone
2023-10-02 00:40:47,0.0002,-0.0267,-1.0184,0.92,-2.44,0.31,-12.24,29.0,37.11,prone
2023-10-02 00:40:47,0.0007,-0.0271,-1.0192,0.92,-2.14,0.31,-12.59,29.08,37.61,prone
2023-10-02 00:40:47,0.0005,-0.0267,-1.0167,1.16,-2.26,0.24,-12.05,29.59,37.54,prone
2023-10-02 00:40:47,0.0004,-0.027,-1.0177,1.22,-2.38,0.24,-12.81,28.81,37.11,prone
2023-10-02 00:40:47,0.0001,-0.0276,-1.0182,1.04,-2.26,0.18,-12.08,28.86,37.45,prone
2023-10-02 00:40:47,0.0005,-0.0276,-1.0177,1.34,-2.38,0.18,-12.48,29.59,38.68,prone
2023-10-02 00:40:47,0.0004,-0.0269,-1.0195,0.98,-2.26,0.24,-12.4,29.64,36.8,prone
2023-10-02 00:40:48,0.0005,-0.0273,-1.0177,1.22,-2.38,0.18,-12.81,29.41,37.43,prone
2023-10-02 00:40:48,0.0006,-0.0259,-1.0188,0.98,-2.2,0.06,-12.17,29.15,37.51,prone
2023-10-02 00:40:48,0.0004,-0.027,-1.0184,1.1,-2.26,0.24,-12.93,29.65,38.05,prone
2023-10-02 00:40:48,0.0005,-0.028,-1.0184,1.1,-2.32,0.18,-12.52,29.25,37.77,prone
2023-10-02 00:40:48,0.0005,-0.0275,-1.0197,1.16,-2.32,0.31,-12.37,28.52,36.61,prone
2023-10-02 00:40:48,0.0002,-0.0273,-1.0184,1.04,-2.14,0.18,-12.26,29.44,38.11,prone
2023-10-02 00:40:48,0.0005,-0.0275,-1.0177,1.1,-2.2,0.31,-13.02,29.2,38.38,prone
2023-10-02 00:40:48,0.0006,-0.0283,-1.0177,1.1,-2.26,0.18,-12.34,28.32,38.38,prone
2023-10-02 00:40:48,0.0004,-0.0266,-1.0183,1.16,-2.38,0.18,-12.57,29.91,37.85,prone
2023-10-02 00:40:49,0.0005,-0.0277,-1.0183,0.85,-2.38,0.12,-12.45,29.33,38.21,prone
2023-10-02 00:40:49,0.0006,-0.0273,-1.0176,1.1,-2.38,0.12,-12.28,29.04,37.27,prone
2023-10-02 00:40:49,0.0007,-0.0283,-1.0176,1.1,-2.32,0.24,-11.82,29.33,37.93,prone
2023-10-02 00:40:49,0.0006,-0.0286,-1.0172,1.22,-2.44,0.24,-11.76,29.74,38.12,prone
2023-10-02 00:40:49,0.0005,-0.0273,-1.0175,0.98,-2.14,0.18,-12.43,29.41,38.35,prone
2023-10-02 00:40:49,0.0007,-0.0275,-1.0179,1.04,-2.2,0.18,-12.01,28.83,37.55,prone
2023-10-02 00:40:49,0.0001,-0.0269,-1.019,1.1,-2.44,0.12,-12.55,29.37,37.56,prone
2023-10-02 00:40:49,0.0006,-0.0277,-1.0175,1.04,-2.32,0.18,-12.38,30.35,38.77,prone
2023-10-02 00:40:49,0.0009,-0.0273,-1.019,0.98,-2.32,0.31,-12.28,28.94,36.73,prone
2023-10-02 00:40:49,0.0006,-0.027,-1.0182,1.04,-2.26,0.18,-13.0,29.44,37.82,prone
2023-10-02 00:40:50,0.0004,-0.026,-1.0167,0.98,-2.32,0.18,-12.84,30.0,38.4,prone
2023-10-02 00:40:50,0.0009,-0.0266,-1.0193,1.04,-2.2,0.24,-12.68,29.41,37.63,prone
2023-10-02 00:40:50,0.0004,-0.027,-1.0176,1.22,-2.38,0.31,-12.32,28.54,38.44,prone
2023-10-02 00:40:50,0.0006,-0.0276,-1.0189,1.16,-2.14,0.24,-12.7,29.63,37.79,prone
2023-10-02 00:40:50,0.0007,-0.0277,-1.0187,1.04,-2.2,0.18,-12.81,30.15,37.99,prone
2023-10-02 00:40:50,0.0004,-0.0264,-1.0187,1.1,-2.2,0.24,-12.99,29.44,36.19,prone
2023-10-02 00:40:50,0.0005,-0.0281,-1.0184,1.1,-2.26,0.18,-12.26,29.3,38.24,prone
2023-10-02 00:40:50,0.0005,-0.0262,-1.0183,0.98,-2.26,0.12,-12.44,29.52,37.56,prone
2023-10-02 00:40:50,0.0018,-0.0284,-1.0178,1.16,-2.38,0.24,-12.32,29.61,38.16,prone
2023-10-02 00:40:51,0.0005,-0.0283,-1.0184,1.22,-2.26,0.24,-12.37,29.32,37.49,prone
2023-10-02 00:40:51,0.0028,-0.0288,-1.0186,0.98,-2.26,0.31,-12.44,28.97,37.71,prone
2023-10-02 00:40:51,-0.0005,-0.0275,-1.0181,1.16,-2.38,0.06,-12.48,29.11,38.26,prone
2023-10-02 00:40:51,0.0007,-0.0272,-1.0182,1.1,-2.44,0.24,-12.02,28.83,38.26,prone
2023-10-02 00:40:51,0.0007,-0.0292,-1.0172,1.16,-2.08,0.31,-11.9,29.27,38.13,prone
2023-10-02 00:40:51,0.0015,-0.0282,-1.0187,1.16,-2.38,0.06,-12.88,29.36,37.88,prone
2023-10-02 00:40:51,-0.0005,-0.0273,-1.0176,0.98,-2.2,0.18,-12.76,29.53,36.74,prone
2023-10-02 00:40:51,0.0006,-0.0271,-1.019,0.98,-2.32,0.06,-12.21,29.3,37.62,prone
2023-10-02 00:40:51,-0.0016,-0.0278,-1.0179,0.85,-2.2,0.18,-12.49,29.42,38.64,prone
2023-10-02 00:40:52,0.0012,-0.0272,-1.0165,0.98,-2.26,0.12,-12.17,29.49,38.01,prone
2023-10-02 00:40:52,0.0007,-0.0283,-1.0188,1.04,-2.38,0.18,-12.37,28.83,36.73,prone
2023-10-02 00:40:52,0.0,-0.027,-1.0167,0.92,-2.14,0.31,-12.55,29.58,38.2,prone
2023-10-02 00:40:52,0.0012,-0.0258,-1.0175,0.98,-2.38,0.12,-12.59,29.36,38.65,prone
2023-10-02 00:40:52,-0.0009,-0.0261,-1.0184,0.98,-2.32,0.12,-12.08,29.49,37.59,prone
2023-10-02 00:40:52,0.0011,-0.0273,-1.0182,1.16,-2.38,0.24,-12.0,30.04,38.32,prone
2023-10-02 00:40:52,0.0005,-0.0273,-1.0194,1.04,-2.26,0.18,-12.48,29.53,38.12,prone
2023-10-02 00:40:52,0.0028,-0.0276,-1.0184,1.16,-2.26,0.37,-12.35,29.44,37.39,prone
2023-10-02 00:40:52,0.0012,-0.0277,-1.0184,1.28,-2.32,0.37,-12.67,28.87,37.23,prone
2023-10-02 00:40:52,0.0009,-0.0272,-1.0168,1.28,-2.38,0.37,-11.89,30.08,38.27,prone
2023-10-02 00:40:53,-0.0002,-0.0284,-1.0173,1.04,-2.26,0.12,-12.56,29.55,38.65,prone
2023-10-02 00:40:53,0.005,-0.0283,-1.019,1.28,-2.44,0.24,-12.38,29.65,37.65,prone
2023-10-02 00:40:53,0.0,-0.0273,-1.0183,1.16,-2.2,0.24,-12.54,29.42,38.09,prone
2023-10-02 00:40:53,0.0033,-0.03,-1.0186,1.04,-1.95,0.24,-12.67,29.54,38.53,prone
2023-10-02 00:40:53,0.002,-0.0284,-1.0165,1.16,-2.2,0.37,-12.51,29.41,37.23,prone
2023-10-02 00:40:53,0.0018,-0.0298,-1.02,1.16,-2.32,0.31,-12.28,29.71,36.79,prone
2023-10-02 00:40:53,0.0013,-0.0275,-1.0193,1.28,-2.2,0.18,-12.48,29.71,38.42,prone
2023-10-02 00:40:53,0.0033,-0.0289,-1.0214,1.1,-2.38,0.24,-12.22,29.36,37.67,prone
2023-10-02 00:40:53,0.0004,-0.028,-1.0184,1.16,-2.26,0.18,-12.57,29.3,38.32,prone
2023-10-02 00:40:54,0.0001,-0.0258,-1.0194,1.1,-2.26,0.06,-12.54,29.8,38.06,prone
2023-10-02 00:40:54,-0.0024,-0.0266,-1.0172,1.16,-2.26,0.18,-12.13,29.53,38.68,prone
2023-10-02 00:40:54,-0.0013,-0.0254,-1.0178,0.92,-2.2,0.31,-12.02,29.63,37.9,prone
2023-10-02 00:40:54,-0.0021,-0.027,-1.0183,0.92,-2.26,0.18,-12.93,29.54,38.35,prone
2023-10-02 00:40:54,0.0007,-0.0267,-1.0178,0.98,-2.32,0.18,-12.92,29.91,38.55,prone
2023-10-02 00:40:54,-0.0004,-0.0267,-1.0181,0.79,-2.32,0.37,-12.51,29.46,38.07,prone
2023-10-02 00:40:54,0.0015,-0.0273,-1.0186,0.79,-2.38,0.18,-11.99,28.91,37.18,prone
2023-10-02 00:40:54,0.0045,-0.0289,-1.0179,1.1,-2.56,0.31,-12.88,29.16,37.88,prone
2023-10-02 00:40:54,0.0004,-0.0287,-1.0199,1.1,-2.26,0.31,-12.17,28.94,38.18,prone
2023-10-02 00:40:55,0.0013,-0.0273,-1.0195,1.28,-2.26,0.24,-11.77,28.53,37.39,prone
2023-10-02 00:40:55,0.0006,-0.0278,-1.0188,1.1,-2.14,0.24,-12.43,29.33,38.56,prone
2023-10-02 00:40:55,0.0006,-0.0288,-1.0187,0.98,-2.26,0.31,-12.92,29.86,38.39,prone
2023-10-02 00:40:55,0.0013,-0.0282,-1.0186,1.22,-2.38,0.24,-12.21,28.87,37.54,prone
2023-10-02 00:40:55,-0.0005,-0.0271,-1.019,1.4,-2.38,0.24,-12.22,28.87,37.65,prone
2023-10-02 00:40:55,0.0011,-0.0273,-1.0173,1.1,-2.2,0.18,-12.11,29.21,37.66,prone
2023-10-02 00:40:55,-0.0021,-0.0278,-1.0184,1.04,-2.32,0.24,-12.9,29.75,38.87,prone
2023-10-02 00:40:55,0.0022,-0.028,-1.0176,1.1,-2.38,0.24,-12.02,29.13,37.78,prone
2023-10-02 00:40:55,0.0005,-0.0283,-1.019,1.1,-2.2,0.24,-12.29,29.44,38.54,prone
2023-10-02 00:40:55,0.0009,-0.0277,-1.0182,1.16,-2.32,0.18,-12.82,30.31,38.72,prone
2023-10-02 00:40:56,0.0006,-0.0278,-1.0182,1.04,-2.2,0.18,-12.55,28.37,37.45,prone
2023-10-02 00:40:56,0.001,-0.0273,-1.0177,1.04,-2.38,0.18,-12.9,29.27,37.71,prone
2023-10-02 00:40:56,0.0002,-0.0276,-1.0204,1.16,-2.2,0.24,-12.95,30.24,38.4,prone
2023-10-02 00:40:56,0.0006,-0.027,-1.0178,0.92,-2.2,0.24,-12.55,29.43,38.73,prone
2023-10-02 00:40:56,0.0004,-0.0273,-1.0179,1.04,-2.26,0.12,-12.51,29.38,37.26,prone
2023-10-02 00:40:56,0.001,-0.0283,-1.0188,1.16,-2.26,0.24,-12.39,29.75,38.65,prone
2023-10-02 00:40:56,0.0009,-0.0269,-1.0178,1.16,-2.26,0.31,-12.41,29.5,37.77,prone
2023-10-02 00:40:56,0.0006,-0.0276,-1.0168,1.16,-2.32,0.06,-12.12,29.39,37.76,prone
2023-10-02 00:40:56,0.0005,-0.0267,-1.0173,1.16,-2.32,0.12,-12.77,29.35,38.24,prone
2023-10-02 00:40:57,0.0006,-0.0276,-1.0179,0.79,-1.95,0.18,-12.28,29.87,39.55,prone
2023-10-02 00:40:57,-0.0004,-0.0273,-1.0183,0.79,-2.32,0.12,-12.56,29.2,38.51,prone
2023-10-02 00:40:57,0.0311,-0.0276,-1.017,0.79,-2.2,0.12,-11.82,29.44,37.0,prone
2023-10-02 00:40:57,0.0006,-0.0276,-1.0184,0.92,-2.2,0.24,-12.68,29.68,38.54,prone
2023-10-02 00:40:57,-0.0017,-0.0269,-1.0166,0.79,-2.14,0.31,-13.17,29.64,38.0,prone
2023-10-02 00:40:57,0.0009,-0.0281,-1.0186,1.1,-2.2,0.18,-12.54,29.39,37.11,prone
2023-10-02 00:40:57,0.0005,-0.0269,-1.0165,1.1,-2.26,0.37,-12.98,29.8,38.04,prone
2023-10-02 00:40:57,0.0005,-0.0275,-1.0182,1.16,-2.26,0.12,-12.85,30.18,38.57,prone
2023-10-02 00:40:57,0.0005,-0.0271,-1.0182,0.98,-2.2,0.18,-12.29,29.17,36.87,prone
2023-10-02 00:40:58,-0.002,-0.0264,-1.0183,1.1,-2.38,0.18,-11.87,28.86,37.26,prone
2023-10-02 00:40:58,0.0009,-0.0277,-1.0188,1.04,-2.14,0.18,-12.85,29.37,38.27,prone
2023-10-02 00:40:58,-0.0001,-0.0272,-1.0173,0.85,-2.32,0.31,-11.85,29.13,38.65,prone
2023-10-02 00:40:58,0.0002,-0.0271,-1.0181,1.1,-2.44,0.18,-12.24,28.96,37.12,prone
2023-10-02 00:40:58,0.0005,-0.0269,-1.0187,1.04,-2.14,0.18,-11.95,29.59,38.34,prone
2023-10-02 00:40:58,0.0007,-0.0277,-1.019,1.28,-2.26,0.24,-12.35,30.14,38.68,prone
2023-10-02 00:40:58,0.0006,-0.0271,-1.0192,1.1,-2.2,0.31,-12.17,29.85,36.94,prone
2023-10-02 00:40:58,0.0006,-0.0271,-1.0189,1.04,-2.26,0.18,-12.11,29.1,37.26,prone
2023-10-02 00:40:58,0.0006,-0.0283,-1.0182,1.1,-2.14,0.12,-12.04,29.87,38.77,prone
2023-10-02 00:40:58,0.0006,-0.0288,-1.0233,1.1,-2.2,0.24,-12.67,29.08,37.94,prone
2023-10-02 00:40:59,0.0002,-0.0281,-1.019,1.28,-2.2,0.43,-12.44,28.78,37.51,prone
2023-10-02 00:40:59,0.0005,-0.0284,-1.0159,0.98,-2.26,0.24,-12.3,29.21,37.4,prone
2023-10-02 00:40:59,0.0012,-0.0271,-1.0186,0.73,-2.26,0.06,-12.57,29.26,37.72,prone
2023-10-02 00:40:59,0.0005,-0.0277,-1.0186,1.1,-2.2,0.31,-12.11,29.25,36.82,prone
2023-10-02 00:40:59,0.0005,-0.0256,-1.0184,0.98,-2.2,0.18,-12.59,29.75,38.24,prone
2023-10-02 00:40:59,0.0002,-0.0271,-1.016,1.1,-2.32,0.12,-13.44,29.6,36.89,prone
2023-10-02 00:40:59,0.0005,-0.0272,-1.0167,0.98,-2.26,0.31,-13.06,29.3,37.55,prone
2023-10-02 00:40:59,0.0029,-0.0273,-1.0193,0.92,-2.44,0.24,-12.81,29.5,37.67,prone
2023-10-02 00:40:59,-0.005,-0.0212,-1.0225,1.04,-2.2,0.18,-12.63,29.37,38.89,prone
2023-10-02 00:41:00,0.0012,-0.028,-1.022,0.98,-2.38,0.18,-12.63,29.19,37.82,prone
2023-10-02 00:41:00,-0.0022,-0.0255,-1.0188,0.85,-2.2,0.24,-12.04,29.42,37.01,prone
2023-10-02 00:41:00,-0.0021,-0.0258,-1.019,1.1,-2.14,0.24,-12.74,29.38,38.49,prone
2023-10-02 00:41:00,0.0005,-0.0255,-1.0176,1.22,-2.2,0.31,-12.5,29.06,38.31,prone
2023-10-02 00:41:00,-0.0029,-0.0254,-1.0187,0.98,-2.26,0.31,-12.29,28.59,37.45,prone
2023-10-02 00:41:00,0.0009,-0.0272,-1.0161,1.1,-2.2,0.18,-12.19,29.21,37.89,prone
2023-10-02 00:41:00,0.0015,-0.0284,-1.0178,1.16,-2.2,0.31,-12.74,29.0,38.0,prone
2023-10-02 00:41:00,0.0009,-0.0292,-1.0211,1.04,-2.2,0.37,-12.49,29.22,37.98,prone
2023-10-02 00:41:00,-0.0074,-0.0231,-1.0199,1.1,-2.08,0.43,-12.41,29.13,37.13,prone
2023-10-02 00:41:00,-0.0007,-0.0283,-1.0216,1.22,-2.38,0.43,-12.56,29.47,38.1,prone
2023-10-02 00:41:01,-0.0062,-0.0317,-1.0222,1.1,-2.14,0.79,-12.65,29.76,39.51,prone
2023-10-02 00:41:01,-0.005,-0.0219,-1.0221,1.16,-2.32,0.37,-12.15,28.32,36.67,prone
2023-10-02 00:41:01,-0.0146,-0.0283,-0.9404,0.98,-2.69,0.06,-12.74,29.46,37.59,prone
2023-10-02 00:41:01,0.0139,-0.0383,-1.0,1.04,-2.32,0.06,-12.66,29.2,39.22,prone
2023-10-02 00:41:01,-0.0039,-0.0204,-1.0155,0.85,-2.08,0.24,-12.43,28.98,38.16,prone
2023-10-02 00:41:01,-0.0006,-0.0272,-1.0149,1.04,-2.2,0.0,-12.02,29.35,37.56,prone
2023-10-02 00:41:01,0.0018,-0.0247,-1.0183,0.98,-2.38,0.12,-11.87,29.32,37.7,prone
2023-10-02 00:41:01,-0.0039,-0.0253,-1.0188,0.98,-2.38,0.18,-12.24,29.21,37.44,prone
2023-10-02 00:41:01,0.0011,-0.0282,-1.0181,0.79,-2.32,0.24,-12.49,29.05,37.82,prone
2023-10-02 00:41:02,-0.0015,-0.0264,-1.0187,1.04,-2.44,0.31,-12.61,29.37,37.94,prone
2023-10-02 00:41:02,0.0009,-0.0284,-1.0194,0.98,-2.2,0.12,-13.2,29.25,38.28,prone
2023-10-02 00:41:02,-0.0006,-0.0258,-1.0186,0.85,-2.2,0.24,-12.13,28.6,37.32,prone
2023-10-02 00:41:02,0.0022,-0.0287,-1.0176,0.85,-2.08,0.18,-12.07,28.78,37.23,prone
2023-10-02 00:41:02,-0.0001,-0.0262,-1.0178,1.1,-2.14,0.12,-12.54,29.49,38.17,prone
2023-10-02 00:41:02,0.0002,-0.0292,-1.0178,0.92,-2.2,0.18,-12.39,29.25,37.4,prone
2023-10-02 00:41:02,0.0005,-0.0275,-1.0176,1.1,-2.26,0.31,-12.12,28.22,36.8,prone
2023-10-02 00:41:02,0.0005,-0.0269,-1.0187,1.1,-2.26,0.31,-12.13,30.19,38.16,prone
2023-10-02 00:41:02,0.0027,-0.0291,-1.0181,1.16,-2.26,0.31,-12.29,29.36,36.78,prone
2023-10-02 00:41:03,-0.0028,-0.0254,-1.0182,1.16,-2.32,0.18,-11.93,28.53,36.87,prone
2023-10-02 00:41:03,0.0011,-0.0289,-1.0181,1.16,-2.38,0.31,-12.37,28.86,37.4,prone
2023-10-02 00:41:03,0.0002,-0.0262,-1.0175,0.98,-2.26,0.18,-12.72,29.24,36.78,prone
2023-10-02 00:41:03,0.0007,-0.0277,-1.0187,0.92,-2.26,0.24,-12.13,28.75,37.93,prone
2023-10-02 00:41:03,-0.0015,-0.0281,-1.0181,1.22,-2.26,0.24,-12.1,28.56,37.18,prone
2023-10-02 00:41:03,0.0,-0.0262,-1.0183,1.16,-2.2,0.24,-12.48,28.93,37.51,prone
2023-10-02 00:41:03,0.0004,-0.0272,-1.0183,1.1,-2.14,0.12,-13.21,29.47,38.07,prone
2023-10-02 00:41:03,0.0012,-0.0284,-1.0175,0.85,-2.2,0.24,-12.72,28.76,37.27,prone
2023-10-02 00:41:03,-0.0009,-0.0275,-1.0187,1.16,-2.2,0.24,-12.46,28.96,38.88,prone
2023-10-02 00:41:03,0.0011,-0.0273,-1.0187,1.28,-2.2,0.18,-12.44,28.67,37.07,prone
2023-10-02 00:41:04,0.0006,-0.0283,-1.0176,1.1,-2.2,0.31,-12.5,28.55,37.9,prone
2023-10-02 00:41:04,0.0011,-0.0286,-1.0175,1.04,-2.38,0.24,-12.39,28.63,37.44,prone
2023-10-02 00:41:04,-0.0012,-0.0255,-1.0184,1.28,-2.32,0.31,-13.11,29.81,38.71,prone
2023-10-02 00:41:04,0.0006,-0.0276,-1.0173,1.1,-2.38,0.18,-12.65,29.47,37.62,prone
2023-10-02 00:41:04,-0.0016,-0.027,-1.0179,0.92,-2.14,0.18,-12.06,28.59,37.38,prone
2023-10-02 00:41:04,0.0006,-0.0266,-1.0171,0.98,-2.38,0.24,-12.28,29.02,37.16,prone
2023-10-02 00:41:04,0.0002,-0.0283,-1.0189,0.98,-2.26,0.31,-12.54,29.17,37.77,prone
2023-10-02 00:41:04,-0.0005,-0.025,-1.0178,1.28,-2.38,0.18,-12.49,28.49,36.49,prone
2023-10-02 00:41:04,0.0015,-0.0292,-1.0178,0.98,-2.32,0.24,-12.26,28.81,36.55,prone
2023-10-02 00:41:05,-0.0023,-0.0264,-1.0178,0.98,-2.38,0.06,-12.49,29.1,37.9,prone
2023-10-02 00:41:05,0.0022,-0.0269,-1.0177,1.16,-2.2,0.24,-12.94,28.94,37.57,prone
2023-10-02 00:41:05,-0.0029,-0.0265,-1.0187,1.16,-2.38,0.18,-12.35,28.65,36.67,prone
2023-10-02 00:41:05,0.0024,-0.0267,-1.0189,1.04,-2.32,0.31,-12.92,29.14,38.77,prone
2023-10-02 00:41:05,-0.0035,-0.0255,-1.0189,1.28,-2.5,0.49,-13.0,28.88,37.89,prone
2023-10-02 00:41:05,0.002,-0.028,-1.0186,1.22,-2.38,0.06,-12.73,29.22,37.95,prone
2023-10-02 00:41:05,-0.0026,-0.0256,-1.0182,1.1,-2.2,0.37,-13.0,29.09,37.57,prone
2023-10-02 00:41:05,0.0026,-0.03,-1.0175,1.04,-2.5,0.24,-12.73,29.14,38.95,prone
2023-10-02 00:41:05,-0.0023,-0.0254,-1.0188,1.04,-2.2,0.31,-12.13,29.04,36.95,prone
2023-10-02 00:41:06,0.0012,-0.0282,-1.0184,1.1,-2.2,0.24,-12.1,28.69,37.55,prone
2023-10-02 00:41:06,0.0005,-0.0276,-1.0177,1.04,-2.38,0.24,-12.18,28.91,38.35,prone
2023-10-02 00:41:06,0.0005,-0.0265,-1.0173,1.16,-2.26,0.18,-12.38,29.24,38.38,prone
2023-10-02 00:41:06,-0.0001,-0.0266,-1.0187,1.16,-2.32,0.24,-11.99,28.63,37.19,prone
2023-10-02 00:41:06,0.0001,-0.025,-1.0175,0.92,-2.32,0.18,-12.74,29.2,38.17,prone
2023-10-02 00:41:06,0.0007,-0.0283,-1.0168,0.98,-2.14,0.24,-12.49,29.31,39.04,prone
2023-10-02 00:41:06,-0.0032,-0.0251,-1.0179,0.92,-2.32,0.12,-12.63,29.15,37.51,prone
2023-10-02 00:41:06,0.0017,-0.0293,-1.0178,1.16,-2.38,0.24,-12.66,29.26,36.5,prone
2023-10-02 00:41:06,-0.0002,-0.0269,-1.0189,1.1,-2.26,0.18,-12.61,29.19,38.71,prone
2023-10-02 00:41:06,0.0011,-0.0272,-1.0187,1.04,-2.01,0.18,-12.0,28.88,37.67,prone
2023-10-02 00:41:07,-0.0024,-0.025,-1.0182,0.98,-2.38,0.12,-12.57,29.06,38.04,prone
2023-10-02 00:41:07,0.0057,-0.0322,-1.0214,0.98,-2.62,0.0,-12.71,29.63,37.49,prone
2023-10-02 00:41:07,-0.0042,-0.0154,-1.0192,0.73,-2.2,0.37,-12.45,29.21,37.28,prone
2023-10-02 00:41:07,-0.0079,-0.0364,-1.0208,1.1,-2.26,-0.18,-12.6,28.82,37.07,prone
2023-10-02 00:41:07,0.0081,-0.0194,-1.0168,1.04,-2.38,0.43,-12.73,29.59,38.2,prone
2023-10-02 00:41:07,-0.0094,-0.0338,-1.0187,0.98,-2.32,0.49,-12.67,29.43,37.6,prone
2023-10-02 00:41:07,0.0007,-0.0179,-1.0134,1.1,-2.38,0.06,-12.38,28.52,37.78,prone
2023-10-02 00:41:07,0.0006,-0.0315,-1.0144,1.1,-2.26,0.24,-12.33,28.76,37.24,prone
2023-10-02 00:41:07,0.0006,-0.0293,-1.0165,1.22,-2.26,0.18,-12.76,29.17,38.68,prone
2023-10-02 00:41:08,0.0009,-0.024,-1.0189,1.1,-2.2,0.31,-12.62,29.47,37.72,prone
2023-10-02 00:41:08,0.0005,-0.0311,-1.0205,1.1,-2.14,0.18,-12.12,28.43,37.92,prone
2023-10-02 00:41:08,0.0006,-0.0247,-1.0181,1.1,-2.14,0.24,-12.18,29.38,37.71,prone
2023-10-02 00:41:08,0.0004,-0.0292,-1.0188,0.85,-2.08,0.24,-12.24,29.3,38.34,prone
2023-10-02 00:41:08,0.0006,-0.0259,-1.0187,1.04,-2.14,0.24,-12.15,29.17,37.48,prone
2023-10-02 00:41:08,0.0006,-0.028,-1.019,1.1,-2.08,0.31,-12.41,29.09,36.68,prone
2023-10-02 00:41:08,0.0006,-0.0267,-1.0184,0.92,-2.2,0.18,-12.85,29.71,38.59,prone
2023-10-02 00:41:08,0.0009,-0.0271,-1.0203,0.92,-2.2,0.31,-12.83,29.04,37.54,prone
2023-10-02 00:41:08,-0.0002,-0.0273,-1.0181,1.16,-2.14,0.37,-12.41,29.58,38.44,prone
2023-10-02 00:41:09,0.0006,-0.0265,-1.0205,1.22,-2.32,0.24,-12.59,29.75,38.33,prone
2023-10-02 00:41:09,0.0004,-0.0283,-1.019,1.16,-2.14,0.24,-12.35,29.77,37.17,prone
2023-10-02 00:41:09,0.0006,-0.0275,-1.0193,1.1,-2.2,0.24,-12.74,29.14,37.24,prone
2023-10-02 00:41:09,0.0005,-0.0273,-1.0165,1.1,-2.2,0.37,-12.38,29.44,37.89,prone
2023-10-02 00:41:09,0.0006,-0.0276,-1.0176,0.85,-2.26,0.12,-12.99,30.24,38.53,prone
2023-10-02 00:41:09,0.0007,-0.0278,-1.0176,0.92,-2.26,0.24,-12.78,28.72,37.26,prone
2023-10-02 00:41:09,0.0012,-0.03,-1.0229,0.98,-2.26,0.12,-12.27,29.3,38.18,prone
2023-10-02 00:41:09,0.0007,-0.0275,-1.0175,0.92,-2.14,0.12,-12.7,29.27,38.29,prone
2023-10-02 00:41:09,0.0004,-0.0265,-1.0181,1.04,-2.08,0.24,-12.93,29.35,38.07,prone
2023-10-02 00:41:09,0.0007,-0.0277,-1.0192,1.1,-2.32,0.18,-12.49,29.32,38.49,prone
2023-10-02 00:41:10,0.0006,-0.0282,-1.0179,1.1,-2.2,0.37,-12.27,29.28,38.34,prone
2023-10-02 00:41:10,0.0006,-0.0271,-1.0182,1.16,-2.26,0.31,-12.02,29.75,39.44,prone
2023-10-02 00:41:10,0.0005,-0.0262,-1.0175,1.28,-2.2,0.18,-12.1,28.98,38.32,prone
2023-10-02 00:41:10,0.0007,-0.0271,-1.0187,1.04,-2.08,0.24,-11.84,29.27,38.07,prone
2023-10-02 00:41:10,0.0006,-0.0277,-1.0188,1.16,-2.08,0.24,-12.54,29.2,38.11,prone
2023-10-02 00:41:10,0.0005,-0.0275,-1.019,1.22,-2.32,0.24,-11.96,28.96,37.62,prone
2023-10-02 00:41:10,0.0004,-0.0271,-1.0188,0.98,-2.26,0.18,-11.36,29.02,37.4,prone
2023-10-02 00:41:10,0.0006,-0.027,-1.0167,1.1,-2.01,0.37,-12.41,29.2,37.63,prone
2023-10-02 00:41:10,0.0005,-0.0272,-1.0187,1.22,-2.32,0.24,-12.5,29.82,37.39,prone
2023-10-02 00:41:11,0.0006,-0.0277,-1.0179,1.04,-2.26,0.31,-12.26,29.9,37.27,prone
2023-10-02 00:41:11,0.0002,-0.0269,-1.0181,1.1,-2.14,0.24,-12.11,29.14,37.82,prone
2023-10-02 00:41:11,0.0006,-0.0271,-1.0184,1.16,-2.2,0.06,-12.44,29.37,38.71,prone
2023-10-02 00:41:11,0.0005,-0.0267,-1.0182,1.16,-2.38,0.31,-11.8,28.55,38.21,prone
2023-10-02 00:41:11,0.0006,-0.0269,-1.0186,1.04,-2.08,0.37,-12.1,28.44,37.72,prone
2023-10-02 00:41:11,0.0006,-0.0276,-1.0187,1.1,-2.14,0.37,-12.38,29.24,38.95,prone
2023-10-02 00:41:11,0.0009,-0.028,-1.0182,1.1,-2.2,0.06,-12.19,29.43,39.62,prone
2023-10-02 00:41:11,0.0007,-0.0273,-1.0171,0.98,-2.14,0.31,-12.66,28.83,37.23,prone
2023-10-02 00:41:11,0.0004,-0.027,-1.0189,1.04,-2.32,0.24,-12.05,29.3,38.34,prone
2023-10-02 00:41:12,0.0006,-0.0275,-1.0175,0.85,-2.01,0.31,-12.26,29.52,38.55,prone
2023-10-02 00:41:12,0.0006,-0.0272,-1.0183,0.92,-2.14,0.12,-12.29,29.13,38.6,prone
2023-10-02 00:41:12,0.0005,-0.0273,-1.0181,0.98,-2.2,0.37,-12.34,29.57,38.95,prone
2023-10-02 00:41:12,0.0005,-0.0272,-1.0188,0.92,-2.08,0.31,-12.43,29.68,38.11,prone
2023-10-02 00:41:12,0.0005,-0.0267,-1.0187,1.04,-2.14,0.12,-13.33,29.64,37.27,prone
2023-10-02 00:41:12,0.0007,-0.0266,-1.0176,1.16,-2.32,0.24,-12.26,28.91,38.54,prone
2023-10-02 00:41:12,0.0006,-0.0266,-1.0178,1.04,-2.14,0.12,-12.13,29.86,39.2,prone
2023-10-02 00:41:12,0.0011,-0.0265,-1.0188,1.04,-2.2,0.12,-12.77,30.31,38.66,prone
2023-10-02 00:41:12,0.0006,-0.0281,-1.0188,1.04,-2.2,0.43,-12.13,29.03,37.6,prone
2023-10-02 00:41:12,0.0011,-0.0272,-1.0179,1.22,-2.26,0.18,-12.27,28.52,38.34,prone
2023-10-02 00:41:13,0.0005,-0.0271,-1.0188,1.04,-2.26,0.18,-12.41,29.24,38.48,prone
2023-10-02 00:41:13,0.0006,-0.0266,-1.0173,1.16,-2.44,0.31,-12.33,29.33,37.9,prone
2023-10-02 00:41:13,0.0007,-0.0273,-1.0179,1.16,-2.32,0.31,-11.93,28.98,37.68,prone
2023-10-02 00:41:13,0.0006,-0.0277,-1.019,1.04,-2.38,0.12,-11.91,29.46,38.59,prone
2023-10-02 00:41:13,0.0006,-0.0282,-1.0184,0.98,-2.2,0.24,-12.84,29.6,38.77,prone
2023-10-02 00:41:13,0.0007,-0.0269,-1.0181,1.16,-2.2,0.24,-12.35,29.43,37.65,prone
2023-10-02 00:41:13,0.0006,-0.0282,-1.019,0.85,-2.08,0.43,-11.9,29.43,37.52,prone
2023-10-02 00:41:13,0.0007,-0.027,-1.0211,1.1,-2.26,0.18,-11.9,30.15,39.53,prone
2023-10-02 00:41:13,0.0006,-0.0269,-1.0179,1.04,-2.08,0.24,-12.54,29.13,37.92,prone
2023-10-02 00:41:14,0.0002,-0.027,-1.021,1.1,-2.14,0.24,-12.06,29.41,38.44,prone
2023-10-02 00:41:14,0.001,-0.0272,-1.0178,1.16,-2.32,0.24,-12.51,29.47,38.65,prone
2023-10-02 00:41:14,0.0004,-0.0273,-1.019,0.98,-2.32,0.18,-12.55,28.91,38.71,prone
2023-10-02 00:41:14,0.0005,-0.0275,-1.0184,1.04,-2.38,0.24,-12.32,28.66,38.26,prone
2023-10-02 00:41:14,0.0006,-0.0275,-1.019,0.98,-2.08,0.18,-12.18,29.71,38.45,prone
2023-10-02 00:41:14,0.0009,-0.0269,-1.0193,0.92,-2.32,0.31,-12.5,29.37,38.77,prone
2023-10-02 00:41:14,0.0005,-0.028,-1.019,0.98,-2.26,0.24,-13.01,28.89,37.48,prone
2023-10-02 00:41:14,0.0009,-0.0269,-1.0188,1.1,-2.32,0.18,-12.71,29.26,38.1,prone
2023-10-02 00:41:14,0.0009,-0.0272,-1.0189,1.04,-2.32,0.18,-12.61,29.9,38.56,prone
2023-10-02 00:41:15,0.0006,-0.028,-1.019,1.04,-2.2,0.24,-12.51,29.03,38.55,prone
2023-10-02 00:41:15,0.0006,-0.0273,-1.0188,1.1,-2.2,0.37,-13.02,29.19,36.56,prone
2023-10-02 00:41:15,0.0006,-0.0276,-1.0195,1.22,-2.2,0.31,-12.79,29.27,38.35,prone
2023-10-02 00:41:15,0.0002,-0.0273,-1.019,1.16,-2.32,0.24,-12.74,29.42,38.65,prone
2023-10-02 00:41:15,0.0006,-0.0262,-1.0188,1.1,-2.2,0.18,-12.43,29.09,37.67,prone
2023-10-02 00:41:15,0.0007,-0.0278,-1.0192,0.98,-2.2,0.24,-12.11,29.33,38.46,prone
2023-10-02 00:41:15,0.0009,-0.0275,-1.0193,1.1,-2.14,0.31,-13.11,29.61,38.96,prone
2023-10-02 00:41:15,0.0005,-0.0282,-1.0186,1.16,-2.14,0.18,-12.54,29.11,37.79,prone
2023-10-02 00:41:15,0.0009,-0.0277,-1.0187,0.92,-2.14,0.24,-12.12,28.98,36.11,prone
2023-10-02 00:41:15,0.0006,-0.0275,-1.0187,1.1,-2.14,0.18,-12.88,29.36,38.45,prone
2023-10-02 00:41:16,0.0006,-0.0281,-1.0188,1.1,-2.32,0.24,-12.33,29.57,38.4,prone
2023-10-02 00:41:16,0.0006,-0.0272,-1.0194,1.1,-2.26,0.12,-12.3,29.54,37.81,prone
2023-10-02 00:41:16,0.0002,-0.0266,-1.0203,1.04,-2.26,0.24,-12.11,28.98,38.54,prone
2023-10-02 00:41:16,0.0006,-0.028,-1.019,1.1,-2.38,0.24,-12.35,29.02,38.21,prone
2023-10-02 00:41:16,0.0006,-0.0267,-1.0201,1.1,-2.2,0.31,-11.8,28.98,37.71,prone
2023-10-02 00:41:16,0.0006,-0.0271,-1.0184,1.1,-2.26,0.31,-12.22,29.69,38.27,prone
2023-10-02 00:41:16,0.0006,-0.0275,-1.0189,1.16,-2.38,0.37,-12.28,29.96,38.7,prone
2023-10-02 00:41:16,0.0007,-0.0277,-1.0179,1.04,-2.38,0.24,-12.6,29.46,37.48,prone
2023-10-02 00:41:16,0.0005,-0.0277,-1.0189,0.98,-2.2,0.12,-12.66,29.21,37.51,prone
2023-10-02 00:41:17,0.0007,-0.0272,-1.0183,1.1,-2.2,0.18,-13.1,29.49,38.71,prone
2023-10-02 00:41:17,0.0006,-0.0275,-1.0193,0.92,-2.26,0.24,-12.63,29.26,38.49,prone
2023-10-02 00:41:17,0.0006,-0.0276,-1.0193,1.22,-2.32,0.31,-12.56,28.83,37.28,prone
2023-10-02 00:41:17,0.0007,-0.0267,-1.0184,0.85,-2.2,0.24,-12.19,29.37,38.11,prone
2023-10-02 00:41:17,0.0004,-0.0276,-1.0189,1.16,-2.14,0.37,-12.04,29.42,37.82,prone
2023-10-02 00:41:17,0.001,-0.0275,-1.0193,0.98,-2.08,0.12,-12.18,29.25,37.28,prone
2023-10-02 00:41:17,0.0006,-0.0276,-1.0195,0.98,-2.26,0.18,-12.11,29.53,36.07,prone
2023-10-02 00:41:17,0.0005,-0.0273,-1.019,1.22,-2.14,0.18,-12.54,29.64,37.5,prone
2023-10-02 00:41:17,0.0005,-0.0281,-1.0189,0.98,-2.14,0.24,-12.88,29.17,36.98,prone
2023-10-02 00:41:18,0.0006,-0.0272,-1.0188,1.04,-2.14,0.31,-12.08,29.05,37.43,prone
2023-10-02 00:41:18,0.0007,-0.0266,-1.0192,1.04,-2.08,0.24,-12.76,29.43,37.83,prone
2023-10-02 00:41:18,0.0007,-0.0275,-1.0184,1.04,-2.26,0.18,-12.5,29.82,38.13,prone
2023-10-02 00:41:18,0.0006,-0.0282,-1.0188,1.04,-2.26,0.24,-12.51,29.11,37.5,prone
2023-10-02 00:41:18,0.0004,-0.0273,-1.0194,1.1,-2.32,0.12,-12.41,29.43,37.21,prone
2023-10-02 00:41:18,0.0006,-0.026,-1.0186,1.16,-2.26,0.24,-12.04,29.48,38.77,prone
2023-10-02 00:41:18,0.0006,-0.0278,-1.0173,1.16,-2.26,0.12,-12.21,29.57,38.16,prone
2023-10-02 00:41:18,0.0004,-0.0277,-1.0188,0.98,-2.2,0.18,-12.02,28.59,37.51,prone
2023-10-02 00:41:18,0.0002,-0.027,-1.0186,0.98,-2.2,0.18,-12.22,29.58,39.09,prone
2023-10-02 00:41:18,0.0007,-0.028,-1.0177,0.92,-2.26,0.24,-12.1,29.33,38.78,prone
2023-10-02 00:41:19,0.0007,-0.0281,-1.0193,1.1,-2.26,0.12,-12.05,29.02,37.45,prone
2023-10-02 00:41:19,0.0006,-0.0262,-1.0189,1.1,-2.08,0.18,-11.79,29.43,38.0,prone
2023-10-02 00:41:19,0.0006,-0.0275,-1.0186,1.04,-2.26,0.18,-11.95,29.39,37.94,prone
2023-10-02 00:41:19,0.0005,-0.0272,-1.0198,1.1,-2.2,0.24,-12.62,29.03,36.79,prone
2023-10-02 00:41:19,0.0005,-0.0278,-1.0183,1.04,-2.2,0.31,-11.56,28.87,37.55,prone
2023-10-02 00:41:19,0.0006,-0.0281,-1.019,0.92,-2.26,0.31,-12.11,29.92,38.02,prone
2023-10-02 00:41:19,0.001,-0.027,-1.0186,1.1,-2.32,0.18,-12.33,29.53,37.43,prone
2023-10-02 00:41:19,0.0006,-0.027,-1.0181,0.73,-2.26,0.31,-12.07,28.88,37.22,prone
2023-10-02 00:41:19,0.0006,-0.0276,-1.0188,0.98,-2.32,0.18,-12.41,29.43,37.84,prone
2023-10-02 00:41:20,0.0005,-0.027,-1.0194,1.16,-2.2,0.31,-12.51,29.88,38.73,prone
2023-10-02 00:41:20,0.0006,-0.0273,-1.0192,0.98,-2.2,0.18,-11.84,29.64,38.22,prone
2023-10-02 00:41:20,0.0005,-0.027,-1.0188,1.22,-2.14,0.37,-12.52,29.16,37.9,prone
2023-10-02 00:41:20,0.0005,-0.0271,-1.0184,0.98,-2.2,0.24,-12.3,29.57,38.07,prone
2023-10-02 00:41:20,0.0009,-0.0266,-1.0188,1.04,-2.14,0.24,-12.17,29.15,38.11,prone
2023-10-02 00:41:20,0.0016,-0.0271,-1.0171,1.1,-2.01,0.31,-12.06,29.19,38.07,prone
2023-10-02 00:41:20,0.0005,-0.0276,-1.019,1.16,-2.2,0.18,-11.74,29.57,38.51,prone
2023-10-02 00:41:20,0.0006,-0.0272,-1.0189,1.22,-2.26,0.12,-12.99,30.04,38.35,prone
2023-10-02 00:41:20,0.0006,-0.0272,-1.0177,1.1,-2.2,0.18,-12.21,29.65,37.37,prone
2023-10-02 00:41:21,0.0011,-0.0269,-1.0178,0.92,-2.2,0.0,-12.05,28.91,37.73,prone
2023-10-02 00:41:21,0.0009,-0.0275,-1.0177,1.1,-2.26,0.18,-12.6,29.22,39.0,prone
2023-10-02 00:41:21,0.0006,-0.0275,-1.0189,1.04,-2.14,0.18,-12.5,29.43,38.45,prone
2023-10-02 00:41:21,0.0005,-0.0266,-1.0214,1.04,-2.2,0.31,-12.32,29.54,37.92,prone
2023-10-02 00:41:21,0.0007,-0.0271,-1.0181,1.1,-2.08,0.31,-13.22,29.88,37.99,prone
2023-10-02 00:41:21,0.0004,-0.0265,-1.0215,1.1,-2.14,0.31,-12.71,29.13,37.49,prone
2023-10-02 00:41:21,0.0007,-0.0276,-1.0183,0.98,-2.38,0.24,-12.44,29.05,38.15,prone
2023-10-02 00:41:21,0.0004,-0.0271,-1.0181,1.1,-2.32,0.18,-12.56,29.38,38.23,prone
2023-10-02 00:41:21,0.0,-0.0276,-1.0187,0.85,-2.26,0.12,-12.22,29.09,37.96,prone
2023-10-02 00:41:21,0.0006,-0.0271,-1.0181,0.92,-2.32,0.12,-12.73,29.25,38.13,prone
2023-10-02 00:41:22,0.0006,-0.0277,-1.0183,1.04,-2.26,0.31,-12.22,28.65,37.5,prone
2023-10-02 00:41:22,0.0005,-0.0276,-1.0183,1.1,-2.44,0.18,-12.65,29.32,38.35,prone
2023-10-02 00:41:22,0.0007,-0.027,-1.0175,1.04,-2.26,0.12,-12.99,29.32,38.92,prone
2023-10-02 00:41:22,0.0004,-0.0281,-1.0181,1.04,-2.08,0.24,-12.28,29.83,38.05,prone
2023-10-02 00:41:22,0.0006,-0.0273,-1.0184,1.16,-2.2,0.24,-12.61,29.21,39.01,prone
2023-10-02 00:41:22,0.0006,-0.0275,-1.0198,1.04,-2.2,0.18,-12.37,29.6,39.1,prone
2023-10-02 00:41:22,0.001,-0.0275,-1.0195,0.92,-2.2,0.24,-12.37,29.11,37.79,prone
2023-10-02 00:41:22,0.0005,-0.0271,-1.0193,0.98,-2.14,0.24,-11.82,29.11,37.51,prone
2023-10-02 00:41:22,0.0004,-0.027,-1.0183,1.1,-2.01,0.18,-12.34,29.54,38.81,prone
2023-10-02 00:41:23,0.0007,-0.0267,-1.0173,1.04,-2.08,0.18,-12.33,29.42,38.05,prone
2023-10-02 00:41:23,0.0007,-0.027,-1.0188,1.16,-2.26,0.18,-12.23,29.24,38.34,prone
2023-10-02 00:41:23,0.0005,-0.0273,-1.0182,1.16,-2.32,0.18,-12.4,29.31,37.79,prone
2023-10-02 00:41:23,0.0001,-0.0271,-1.0184,1.04,-2.2,0.24,-12.72,30.02,39.37,prone
2023-10-02 00:41:23,0.0006,-0.0278,-1.0181,1.04,-2.26,0.24,-11.49,28.94,36.83,prone
2023-10-02 00:41:23,0.0006,-0.0273,-1.017,0.98,-2.2,0.0,-11.93,28.92,37.55,prone
2023-10-02 00:41:23,0.0006,-0.0282,-1.0179,1.04,-2.26,0.37,-12.5,29.59,37.01,prone
2023-10-02 00:41:23,0.0006,-0.0269,-1.0177,1.1,-2.2,0.06,-12.12,29.05,37.22,prone
2023-10-02 00:41:23,0.0006,-0.0275,-1.0176,0.85,-2.2,0.24,-11.68,28.74,38.04,prone
2023-10-02 00:41:24,0.0002,-0.0271,-1.0201,1.16,-2.44,0.12,-12.39,29.53,38.89,prone
2023-10-02 00:41:24,0.0006,-0.0269,-1.0176,0.98,-2.2,0.12,-12.46,29.42,38.13,prone
2023-10-02 00:41:24,0.0,-0.0275,-1.0177,1.04,-2.14,0.24,-12.71,28.94,36.9,prone
2023-10-02 00:41:24,0.0006,-0.0273,-1.0172,0.98,-2.14,0.18,-11.9,29.02,37.06,prone
2023-10-02 00:41:24,0.0005,-0.0281,-1.0184,0.98,-2.2,0.31,-12.27,30.21,37.54,prone
2023-10-02 00:41:24,0.0006,-0.0278,-1.0182,0.73,-2.08,0.24,-12.22,28.81,37.54,prone
2023-10-02 00:41:24,0.0011,-0.0269,-1.0172,0.67,-2.2,0.24,-12.12,29.0,37.81,prone
2023-10-02 00:41:24,0.0006,-0.0277,-1.0183,0.92,-2.14,0.24,-12.33,29.49,37.93,prone
2023-10-02 00:41:24,0.0009,-0.028,-1.0186,1.04,-2.14,0.24,-12.73,29.06,37.54,prone
2023-10-02 00:41:24,0.0007,-0.0277,-1.0176,1.04,-2.26,0.12,-11.89,29.13,36.65,prone
2023-10-02 00:41:25,0.0006,-0.0277,-1.0189,1.16,-2.14,0.24,-11.99,29.25,36.99,prone
2023-10-02 00:41:25,0.0005,-0.0275,-1.0171,1.04,-2.2,0.31,-11.95,29.85,38.45,prone
2023-10-02 00:41:25,0.0006,-0.0283,-1.0179,1.04,-2.2,0.24,-11.51,29.22,38.24,prone
2023-10-02 00:41:25,0.0005,-0.028,-1.0177,1.1,-2.32,0.12,-12.28,29.05,37.85,prone
2023-10-02 00:41:25,0.0005,-0.027,-1.0187,1.16,-2.32,0.24,-12.05,29.6,37.63,prone
2023-10-02 00:41:25,0.0009,-0.0266,-1.0189,0.98,-2.32,0.18,-12.28,29.55,38.35,prone
2023-10-02 00:41:25,0.0006,-0.027,-1.0189,1.16,-2.32,0.12,-12.28,29.43,37.04,prone
2023-10-02 00:41:25,0.0006,-0.0269,-1.0189,1.04,-2.44,0.12,-12.16,29.21,38.04,prone
2023-10-02 00:41:25,0.0006,-0.0273,-1.0178,1.04,-2.2,0.24,-12.62,29.92,38.24,prone
2023-10-02 00:41:26,0.0004,-0.0276,-1.0187,1.1,-2.26,0.24,-12.19,29.36,38.2,prone
2023-10-02 00:41:26,0.0006,-0.0281,-1.0178,0.92,-2.2,0.12,-12.13,29.04,38.17,prone
2023-10-02 00:41:26,0.0006,-0.0273,-1.0184,1.16,-2.14,0.37,-12.38,29.64,38.48,prone
2023-10-02 00:41:26,0.0005,-0.0278,-1.0184,1.1,-2.26,0.24,-12.61,29.48,37.83,prone
2023-10-02 00:41:26,0.0005,-0.0272,-1.0159,1.04,-2.14,0.31,-11.95,28.83,37.51,prone
2023-10-02 00:41:26,0.0006,-0.0271,-1.0192,0.92,-2.32,0.18,-12.29,29.52,38.16,prone
2023-10-02 00:41:26,0.0006,-0.027,-1.0176,0.85,-2.2,0.24,-12.62,29.43,37.27,prone
2023-10-02 00:41:26,0.0006,-0.0273,-1.0173,0.92,-2.14,0.31,-12.08,28.71,37.15,prone
2023-10-02 00:41:26,0.0006,-0.0276,-1.0187,1.04,-2.5,0.12,-11.95,29.59,38.43,prone
2023-10-02 00:41:27,0.001,-0.027,-1.0177,0.92,-2.44,0.24,-12.62,29.82,38.42,prone
2023-10-02 00:41:27,0.0007,-0.028,-1.0184,0.85,-2.01,0.12,-12.32,29.75,37.41,prone
2023-10-02 00:41:27,0.0009,-0.0271,-1.0179,0.79,-2.32,0.12,-12.04,29.19,36.58,prone
2023-10-02 00:41:27,0.0006,-0.0266,-1.0186,0.98,-2.32,0.12,-12.1,29.65,37.44,prone
2023-10-02 00:41:27,0.0006,-0.0278,-1.0179,1.04,-2.26,0.24,-12.19,29.44,37.88,prone
2023-10-02 00:41:27,0.0006,-0.0266,-1.0186,0.98,-2.2,0.12,-12.49,28.87,36.74,prone
2023-10-02 00:41:27,0.0006,-0.0272,-1.0181,1.16,-2.32,0.24,-12.02,29.8,36.91,prone
2023-10-02 00:41:27,0.0006,-0.0265,-1.0171,0.98,-2.26,0.24,-12.26,29.81,38.07,prone
2023-10-02 00:41:27,0.0006,-0.0273,-1.0183,1.22,-2.32,0.31,-11.93,28.97,37.22,prone
2023-10-02 00:41:27,0.0005,-0.0266,-1.0182,1.16,-2.2,0.24,-12.08,28.58,37.11,prone
2023-10-02 00:41:28,0.0006,-0.0275,-1.0184,1.16,-2.2,0.31,-12.81,29.38,38.18,prone
2023-10-02 00:41:28,0.0005,-0.0265,-1.0189,0.98,-2.26,0.24,-12.23,29.7,37.72,prone
2023-10-02 00:41:28,0.0005,-0.0272,-1.0184,1.1,-2.14,0.24,-11.94,29.28,37.65,prone
2023-10-02 00:41:28,0.0006,-0.0272,-1.0184,1.1,-2.2,0.12,-12.16,29.76,38.35,prone
2023-10-02 00:41:28,0.0005,-0.027,-1.0176,1.1,-2.14,0.06,-12.08,29.82,37.55,prone
2023-10-02 00:41:28,0.0005,-0.0283,-1.0184,1.28,-2.26,0.31,-12.07,29.77,37.23,prone
2023-10-02 00:41:28,0.0006,-0.0275,-1.0184,0.98,-2.2,0.12,-11.82,29.58,37.1,prone
2023-10-02 00:41:28,0.0,-0.0259,-1.021,1.16,-2.26,0.24,-12.06,29.64,37.52,prone
2023-10-02 00:41:28,0.0009,-0.0273,-1.0188,1.16,-2.32,0.24,-12.38,28.96,37.01,prone
2023-10-02 00:41:29,0.0006,-0.0259,-1.0201,1.1,-2.26,0.24,-11.84,28.93,36.67,prone
2023-10-02 00:41:29,0.0006,-0.027,-1.0188,1.16,-2.32,0.24,-12.17,29.57,37.37,prone
2023-10-02 00:41:29,0.001,-0.0273,-1.0176,1.04,-2.32,0.24,-12.72,29.6,37.21,prone
2023-10-02 00:41:29,0.0006,-0.0281,-1.0177,0.85,-2.32,0.24,-11.5,29.66,37.23,prone
2023-10-02 00:41:29,0.0007,-0.028,-1.0178,0.85,-2.38,0.24,-12.33,29.38,38.05,prone
2023-10-02 00:41:29,0.0007,-0.0284,-1.0178,1.1,-2.08,0.31,-11.66,29.77,38.92,prone
2023-10-02 00:41:29,0.0005,-0.0276,-1.0177,0.98,-2.08,0.31,-12.0,29.35,36.82,prone
2023-10-02 00:41:29,0.0002,-0.0273,-1.0189,0.85,-2.26,0.12,-12.37,28.81,36.33,prone
2023-10-02 00:41:29,0.0004,-0.0267,-1.0187,0.98,-2.2,0.31,-12.46,29.46,38.62,prone
2023-10-02 00:41:29,0.0006,-0.0275,-1.0186,0.73,-2.26,0.24,-12.17,29.27,37.6,prone
2023-10-02 00:41:30,0.0007,-0.0266,-1.0182,0.98,-2.26,0.12,-12.43,28.66,37.38,prone
2023-10-02 00:41:30,0.0006,-0.028,-1.0188,1.16,-2.2,0.18,-12.39,29.2,38.15,prone
2023-10-02 00:41:30,0.0005,-0.0276,-1.0178,0.92,-2.2,0.37,-13.06,29.48,37.61,prone
2023-10-02 00:41:30,0.0006,-0.0277,-1.0181,1.04,-2.08,0.06,-12.48,29.64,38.54,prone
2023-10-02 00:41:30,0.0005,-0.0282,-1.0187,0.98,-2.2,0.18,-11.84,28.78,36.89,prone
2023-10-02 00:41:30,0.0005,-0.0281,-1.0172,1.1,-2.14,0.18,-12.65,29.59,38.06,prone
2023-10-02 00:41:30,0.0007,-0.0275,-1.0188,0.92,-2.2,0.24,-12.61,29.7,38.27,prone
2023-10-02 00:41:30,0.0006,-0.0269,-1.0176,1.1,-2.14,0.24,-12.89,28.77,36.93,prone
2023-10-02 00:41:30,0.0009,-0.0273,-1.0184,1.04,-2.26,0.12,-12.29,29.13,37.01,prone
2023-10-02 00:41:31,0.0009,-0.026,-1.0189,1.22,-2.38,0.31,-12.76,29.26,38.24,prone
2023-10-02 00:41:31,0.0005,-0.0276,-1.0186,1.04,-2.38,0.06,-12.45,28.85,37.48,prone
2023-10-02 00:41:31,0.0006,-0.0272,-1.0184,0.98,-2.26,0.37,-12.32,29.05,37.1,prone
2023-10-02 00:41:31,0.0006,-0.0278,-1.0187,1.1,-2.32,0.12,-12.35,29.26,38.5,prone
2023-10-02 00:41:31,0.0004,-0.0266,-1.0194,1.04,-2.08,0.31,-12.9,29.5,37.37,prone
2023-10-02 00:41:31,0.0009,-0.0277,-1.0172,1.28,-2.2,0.31,-11.79,29.33,37.06,prone
2023-10-02 00:41:31,-0.0002,-0.0264,-1.0193,1.16,-2.14,0.24,-12.22,29.79,37.62,prone
2023-10-02 00:41:31,0.0006,-0.0271,-1.0172,1.1,-2.32,0.12,-12.19,29.5,38.65,prone
2023-10-02 00:41:31,0.0009,-0.028,-1.0178,1.04,-2.26,0.18,-12.24,29.27,37.66,prone
2023-10-02 00:41:32,0.0005,-0.0272,-1.0176,1.04,-2.26,0.31,-12.77,29.52,37.48,prone
2023-10-02 00:41:32,0.0005,-0.027,-1.0183,0.79,-2.32,0.18,-12.93,29.59,37.73,prone
2023-10-02 00:41:32,0.0006,-0.0265,-1.0178,0.79,-2.5,0.18,-12.45,29.43,38.38,prone
2023-10-02 00:41:32,0.0005,-0.0264,-1.0183,0.79,-1.95,0.06,-12.22,29.28,36.15,prone
2023-10-02 00:41:32,0.0001,-0.0271,-1.0183,1.04,-2.38,0.31,-12.67,29.37,37.67,prone
2023-10-02 00:41:32,0.0006,-0.0283,-1.019,1.04,-2.26,0.24,-12.48,29.85,38.11,prone
2023-10-02 00:41:32,0.0012,-0.0275,-1.0171,1.1,-2.26,0.18,-12.4,28.88,37.85,prone
2023-10-02 00:41:32,0.001,-0.0283,-1.0182,1.16,-2.2,0.18,-11.88,29.15,37.48,prone
2023-10-02 00:41:32,0.0005,-0.0262,-1.0187,1.16,-2.32,0.24,-12.3,29.1,38.12,prone
2023-10-02 00:41:32,0.0005,-0.027,-1.0183,1.1,-2.2,0.24,-12.43,29.13,37.52,prone
2023-10-02 00:41:33,0.0006,-0.027,-1.0186,1.28,-2.14,0.18,-11.73,28.55,36.63,prone
2023-10-02 00:41:33,0.0004,-0.0266,-1.0184,0.98,-2.14,0.18,-12.06,28.8,38.01,prone
2023-10-02 00:41:33,0.0009,-0.0276,-1.0182,1.04,-2.08,0.43,-12.45,29.76,37.11,prone
2023-10-02 00:41:33,0.0006,-0.0275,-1.0186,1.22,-2.2,0.31,-12.18,28.92,37.1,prone
2023-10-02 00:41:33,0.0011,-0.0273,-1.0187,1.04,-2.26,0.12,-12.17,29.24,37.78,prone
2023-10-02 00:41:33,0.0009,-0.0272,-1.019,0.98,-2.26,0.24,-12.35,29.58,37.74,prone
2023-10-02 00:41:33,0.0007,-0.0275,-1.0189,0.98,-2.26,0.18,-12.29,29.49,37.76,prone
2023-10-02 00:41:33,0.0006,-0.0276,-1.0189,1.1,-2.26,0.12,-12.33,28.94,37.84,prone
2023-10-02 00:41:33,0.0007,-0.027,-1.0165,1.04,-2.26,0.24,-12.74,29.58,38.27,prone
2023-10-02 00:41:34,0.0009,-0.027,-1.0177,1.1,-2.26,0.24,-12.44,29.14,36.43,prone
2023-10-02 00:41:34,0.0006,-0.0272,-1.0178,1.16,-2.38,0.18,-12.11,29.03,35.8,prone
2023-10-02 00:41:34,0.0005,-0.0272,-1.0183,0.98,-2.26,0.18,-12.71,29.26,36.66,prone
2023-10-02 00:41:34,0.001,-0.0276,-1.0187,0.98,-2.44,0.12,-12.78,29.21,38.66,prone
2023-10-02 00:41:34,0.0007,-0.0276,-1.0181,0.98,-2.26,0.24,-12.22,28.99,37.48,prone
2023-10-02 00:41:34,0.0004,-0.0272,-1.0187,0.79,-2.26,0.06,-12.24,28.55,37.49,prone
2023-10-02 00:41:34,0.0006,-0.0273,-1.0186,0.98,-2.32,0.24,-12.38,29.03,38.31,prone
2023-10-02 00:41:34,0.0006,-0.0277,-1.019,0.73,-2.5,0.24,-12.34,29.02,37.73,prone
2023-10-02 00:41:34,0.0006,-0.0275,-1.0186,1.04,-2.38,0.24,-12.44,28.48,37.5,prone
2023-10-02 00:41:35,0.0009,-0.027,-1.0181,0.92,-2.26,0.31,-12.6,29.16,38.59,prone
2023-10-02 00:41:35,0.0007,-0.0276,-1.0175,0.92,-2.32,0.18,-12.29,29.55,39.22,prone
2023-10-02 00:41:35,0.0005,-0.0273,-1.0172,1.1,-2.32,0.31,-12.26,29.24,38.56,prone
2023-10-02 00:41:35,0.0006,-0.0277,-1.0184,1.1,-2.38,0.24,-12.17,28.85,36.8,prone
2023-10-02 00:41:35,0.0009,-0.0278,-1.0179,1.1,-2.5,0.18,-12.28,28.89,38.24,prone
2023-10-02 00:41:35,0.0009,-0.0275,-1.0189,0.98,-2.32,0.37,-12.22,29.14,39.33,prone
2023-10-02 00:41:35,0.0005,-0.0264,-1.0181,1.1,-2.32,0.18,-12.27,29.03,37.11,prone
2023-10-02 00:41:35,0.0007,-0.028,-1.0181,1.04,-2.32,0.24,-12.23,29.04,38.29,prone
2023-10-02 00:41:35,0.0006,-0.0281,-1.017,1.1,-2.38,0.24,-12.73,29.53,38.15,prone
2023-10-02 00:41:35,0.0007,-0.0269,-1.0181,1.16,-2.26,0.31,-11.93,29.22,37.29,prone
2023-10-02 00:41:36,0.0002,-0.027,-1.0183,1.1,-2.14,0.24,-11.94,28.82,37.5,prone
2023-10-02 00:41:36,0.0006,-0.0273,-1.0184,1.16,-2.26,0.31,-11.67,29.82,38.21,prone
2023-10-02 00:41:36,0.0002,-0.0266,-1.0201,1.1,-2.2,0.18,-11.99,29.31,37.33,prone
2023-10-02 00:41:36,0.0007,-0.0271,-1.0184,1.22,-2.44,0.18,-11.43,28.47,37.26,prone
2023-10-02 00:41:36,0.0007,-0.0271,-1.0197,1.04,-2.2,0.24,-12.17,29.24,38.61,prone
2023-10-02 00:41:36,0.0007,-0.0275,-1.0186,1.1,-2.38,0.18,-12.27,28.91,38.11,prone
2023-10-02 00:41:36,0.0009,-0.0283,-1.0189,0.98,-2.01,0.37,-11.88,28.6,36.55,prone
2023-10-02 00:41:36,0.0009,-0.028,-1.0181,0.85,-2.32,0.31,-11.84,29.11,37.71,prone
2023-10-02 00:41:36,0.0005,-0.0271,-1.0178,1.16,-2.38,0.18,-12.45,29.76,38.34,prone
2023-10-02 00:41:37,0.0004,-0.0267,-1.0187,1.1,-2.5,0.18,-12.46,29.53,37.05,prone
2023-10-02 00:41:37,0.0006,-0.0272,-1.0188,0.92,-2.32,0.24,-11.9,29.16,36.65,prone
2023-10-02 00:41:37,0.0006,-0.027,-1.0176,0.98,-2.14,0.31,-12.49,29.91,37.41,prone
2023-10-02 00:41:37,0.0011,-0.0261,-1.019,0.98,-2.32,0.24,-11.83,29.53,37.84,prone
2023-10-02 00:41:37,0.0005,-0.0271,-1.0184,1.04,-2.38,0.18,-12.35,29.28,36.78,prone
2023-10-02 00:41:37,0.0004,-0.0275,-1.0188,1.04,-2.32,0.24,-12.48,28.97,37.02,prone
2023-10-02 00:41:37,0.0009,-0.0273,-1.0193,1.1,-2.14,0.12,-12.46,29.59,38.75,prone
2023-10-02 00:41:37,0.0004,-0.0275,-1.0184,1.04,-2.32,0.18,-11.9,29.37,38.28,prone
2023-10-02 00:41:37,0.0006,-0.0275,-1.0186,0.92,-2.26,0.12,-12.3,29.37,37.29,prone
2023-10-02 00:41:38,0.0006,-0.0269,-1.0187,1.22,-2.26,0.31,-12.37,29.64,38.31,prone
2023-10-02 00:41:38,0.0005,-0.028,-1.0183,1.04,-2.44,0.18,-12.41,29.55,37.07,prone
2023-10-02 00:41:38,0.0006,-0.0282,-1.0176,1.1,-2.32,0.24,-12.22,28.87,36.91,prone
2023-10-02 00:41:38,0.0006,-0.0269,-1.0187,0.92,-2.32,0.18,-11.63,29.38,38.35,prone
2023-10-02 00:41:38,0.0006,-0.0275,-1.0188,1.04,-2.26,0.24,-12.32,29.72,38.21,prone
2023-10-02 00:41:38,0.0007,-0.0258,-1.0192,1.16,-2.26,0.18,-12.34,28.77,37.71,prone
2023-10-02 00:41:38,0.0006,-0.0283,-1.0188,1.04,-2.26,0.24,-12.04,29.13,36.88,prone
2023-10-02 00:41:38,0.0006,-0.0281,-1.0187,1.16,-2.26,0.31,-12.02,29.33,37.61,prone
2023-10-02 00:41:38,0.0009,-0.0267,-1.0187,1.16,-2.32,0.18,-12.23,29.85,36.13,prone
2023-10-02 00:41:38,0.001,-0.0273,-1.0181,0.85,-2.14,0.12,-12.15,28.64,36.87,prone
2023-10-02 00:41:39,0.0005,-0.028,-1.0186,1.04,-2.32,0.12,-12.04,29.7,37.99,prone
2023-10-02 00:41:39,0.0006,-0.0277,-1.0177,1.04,-2.38,0.31,-12.76,29.63,37.44,prone
2023-10-02 00:41:39,0.0006,-0.027,-1.0183,1.16,-2.2,0.18,-12.61,29.57,36.54,prone
2023-10-02 00:41:39,0.0005,-0.0277,-1.0178,0.98,-2.2,0.24,-12.13,29.41,36.78,prone
2023-10-02 00:41:39,0.0011,-0.0277,-1.0192,1.04,-2.26,0.24,-12.54,29.8,37.32,prone
2023-10-02 00:41:39,0.0006,-0.0276,-1.019,0.92,-2.2,0.18,-12.67,29.06,37.76,prone
2023-10-02 00:41:39,0.0007,-0.0281,-1.0184,0.92,-2.26,0.12,-12.22,28.67,36.71,prone
2023-10-02 00:41:39,0.0005,-0.0273,-1.0183,0.98,-2.38,0.12,-12.04,29.38,38.34,prone
2023-10-02 00:41:39,0.0011,-0.0276,-1.0183,1.04,-2.38,0.12,-12.41,29.66,37.84,prone
2023-10-02 00:41:40,0.0006,-0.0273,-1.0172,1.22,-2.44,0.06,-12.13,29.09,38.22,prone
2023-10-02 00:41:40,0.0006,-0.0271,-1.0189,0.92,-2.08,0.43,-12.37,29.41,36.62,prone
2023-10-02 00:41:40,0.0009,-0.0278,-1.0178,0.98,-2.08,0.12,-12.45,29.28,37.7,prone
2023-10-02 00:41:40,0.0007,-0.0267,-1.0197,1.1,-2.38,0.31,-12.55,29.64,37.43,prone
2023-10-02 00:41:40,0.0005,-0.0278,-1.0175,1.28,-2.32,0.24,-12.48,29.14,36.19,prone
2023-10-02 00:41:40,0.0006,-0.0275,-1.0186,1.16,-2.32,0.12,-12.08,29.22,37.62,prone
2023-10-02 00:41:40,0.0006,-0.027,-1.0178,1.16,-2.38,0.37,-12.52,29.9,37.93,prone
2023-10-02 00:41:40,0.0006,-0.0277,-1.0184,1.22,-2.32,0.18,-12.56,29.61,37.0,prone
2023-10-02 00:41:40,0.0002,-0.0267,-1.0178,1.22,-2.2,0.43,-12.34,29.22,36.45,prone
2023-10-02 00:41:41,0.0006,-0.0271,-1.0179,0.98,-2.26,0.18,-12.38,29.41,37.94,prone
2023-10-02 00:41:41,0.0005,-0.0273,-1.0182,1.16,-2.2,0.24,-12.33,29.3,37.39,prone
2023-10-02 00:41:41,0.0007,-0.0277,-1.0179,1.4,-2.38,0.18,-11.57,28.99,37.51,prone
2023-10-02 00:41:41,0.0009,-0.027,-1.0198,0.98,-2.08,0.31,-12.76,29.02,38.0,prone
2023-10-02 00:41:41,0.0006,-0.0269,-1.0182,1.1,-2.08,0.18,-12.22,28.56,37.34,prone
2023-10-02 00:41:41,0.0007,-0.0271,-1.0195,1.22,-2.2,0.24,-11.62,28.72,37.65,prone
2023-10-02 00:41:41,0.0007,-0.0276,-1.0186,1.04,-2.08,0.24,-12.18,29.22,38.06,prone
2023-10-02 00:41:41,0.0007,-0.0277,-1.0181,1.1,-2.2,0.18,-11.82,29.82,38.78,prone
2023-10-02 00:41:41,0.0009,-0.0276,-1.0172,0.98,-2.08,0.18,-12.35,29.32,37.33,prone
2023-10-02 00:41:41,0.0012,-0.0275,-1.0176,0.92,-2.32,0.18,-11.98,29.22,37.83,prone
2023-10-02 00:41:42,0.0009,-0.0282,-1.0186,0.98,-2.44,0.06,-12.0,29.68,38.56,prone
2023-10-02 00:41:42,0.0006,-0.0276,-1.0187,0.98,-2.14,0.18,-11.93,29.41,37.57,prone
2023-10-02 00:41:42,0.0006,-0.0273,-1.0184,0.98,-2.32,0.18,-11.83,29.05,37.85,prone
2023-10-02 00:41:42,0.0006,-0.0276,-1.0188,0.98,-2.2,0.12,-12.04,29.27,37.57,prone
2023-10-02 00:41:42,0.0005,-0.0275,-1.0189,1.22,-2.38,0.24,-12.0,29.55,38.73,prone
2023-10-02 00:41:42,0.0005,-0.0269,-1.0188,1.1,-2.26,0.12,-12.45,28.7,37.44,prone
2023-10-02 00:41:42,0.0007,-0.0267,-1.0187,1.1,-2.32,0.18,-11.66,29.15,36.58,prone
2023-10-02 00:41:42,0.0007,-0.0272,-1.0189,1.04,-2.26,0.31,-11.99,29.64,38.92,prone
2023-10-02 00:41:42,0.0009,-0.027,-1.0189,1.1,-2.26,0.18,-11.78,29.46,37.66,prone
2023-10-02 00:41:43,0.0007,-0.0283,-1.0195,1.22,-2.38,0.18,-11.18,28.71,36.69,prone
2023-10-02 00:41:43,0.0007,-0.0269,-1.0189,1.1,-2.26,0.37,-12.37,29.36,38.13,prone
2023-10-02 00:41:43,0.0006,-0.0273,-1.0194,1.16,-2.44,0.12,-12.74,29.57,38.33,prone
2023-10-02 00:41:43,0.0005,-0.0277,-1.0189,0.98,-2.14,0.24,-11.69,28.77,36.95,prone
2023-10-02 00:41:43,0.0006,-0.0272,-1.0189,1.1,-2.32,0.18,-12.04,29.2,36.78,prone
2023-10-02 00:41:43,0.0006,-0.0276,-1.0184,0.92,-2.26,0.18,-11.91,29.48,37.12,prone
2023-10-02 00:41:43,0.0007,-0.0271,-1.0197,1.22,-2.38,0.24,-12.17,29.06,37.84,prone
2023-10-02 00:41:43,0.0007,-0.0275,-1.0184,0.92,-2.56,0.31,-11.69,29.55,37.51,prone
2023-10-02 00:41:43,0.0005,-0.0276,-1.0197,1.1,-2.32,0.31,-12.15,29.37,38.07,prone
2023-10-02 00:41:44,0.0006,-0.0265,-1.0225,0.98,-2.14,0.24,-12.79,29.0,38.11,prone
2023-10-02 00:41:44,0.0007,-0.028,-1.0186,1.1,-2.26,0.31,-12.11,29.2,37.57,prone
2023-10-02 00:41:44,0.0005,-0.0269,-1.022,1.22,-2.2,0.37,-11.55,29.53,38.99,prone
2023-10-02 00:41:44,0.0007,-0.0267,-1.0187,0.85,-2.14,0.12,-12.59,29.77,39.18,prone
2023-10-02 00:41:44,0.001,-0.0276,-1.0176,1.1,-2.32,0.12,-11.45,29.41,38.04,prone
2023-10-02 00:41:44,0.0009,-0.0276,-1.0188,0.85,-2.26,0.18,-11.79,29.21,37.51,prone
2023-10-02 00:41:44,0.0006,-0.0266,-1.0186,0.92,-2.32,0.18,-11.4,29.98,38.34,prone
2023-10-02 00:41:44,0.0009,-0.0278,-1.0187,0.73,-2.08,0.12,-12.12,29.41,37.7,prone
2023-10-02 00:41:44,0.0005,-0.0277,-1.0187,0.85,-2.14,0.18,-11.68,29.16,36.83,prone
2023-10-02 00:41:44,0.0005,-0.0281,-1.0184,1.22,-2.44,0.24,-11.94,29.75,37.49,prone
2023-10-02 00:41:45,0.0005,-0.0286,-1.0183,1.1,-2.01,0.37,-12.02,30.05,37.68,prone
2023-10-02 00:41:45,0.0006,-0.0272,-1.0187,1.22,-2.26,0.31,-11.73,29.26,37.23,prone
2023-10-02 00:41:45,0.0006,-0.0273,-1.0183,1.1,-2.26,0.24,-12.0,29.32,38.53,prone
2023-10-02 00:41:45,0.0012,-0.0273,-1.0189,1.22,-2.26,0.24,-12.1,29.5,37.87,prone
2023-10-02 00:41:45,0.0005,-0.0277,-1.0184,0.98,-2.32,0.24,-12.13,29.74,38.18,prone
2023-10-02 00:41:45,0.0006,-0.0276,-1.0181,1.22,-2.2,0.24,-12.98,29.09,37.7,prone
2023-10-02 00:41:45,0.0007,-0.0273,-1.0189,1.04,-2.44,0.24,-12.71,29.17,38.22,prone
2023-10-02 00:41:45,0.0007,-0.0286,-1.0187,1.16,-2.2,0.31,-11.95,29.76,38.66,prone
2023-10-02 00:41:45,0.0006,-0.0267,-1.019,1.1,-2.44,0.18,-11.95,28.91,36.77,prone
2023-10-02 00:41:46,0.0006,-0.0277,-1.019,1.1,-2.26,0.12,-12.1,29.09,36.96,prone
2023-10-02 00:41:46,0.001,-0.0277,-1.0177,0.98,-2.38,0.24,-12.19,29.08,38.2,prone
2023-10-02 00:41:46,0.0007,-0.0273,-1.0189,1.16,-2.5,0.12,-12.0,29.35,37.59,prone
2023-10-02 00:41:46,0.0007,-0.0269,-1.0187,0.92,-2.38,0.18,-11.77,28.93,36.61,prone
2023-10-02 00:41:46,0.0006,-0.0271,-1.0176,1.16,-2.44,0.31,-11.38,29.43,38.85,prone
2023-10-02 00:41:46,0.0005,-0.0269,-1.019,1.1,-2.56,0.18,-12.13,29.32,38.96,prone
2023-10-02 00:41:46,0.0007,-0.0271,-1.0165,0.92,-2.2,0.18,-11.72,28.54,37.19,prone
2023-10-02 00:41:46,0.0009,-0.0281,-1.0183,0.98,-2.32,0.06,-12.05,29.55,37.9,prone
2023-10-02 00:41:46,0.0005,-0.0276,-1.0182,1.22,-2.38,0.24,-12.74,29.37,39.53,prone
2023-10-02 00:41:47,0.0006,-0.0273,-1.0184,0.98,-2.44,0.24,-11.69,29.27,38.17,prone
2023-10-02 00:41:47,0.0005,-0.0277,-1.0187,0.79,-2.44,0.18,-11.9,28.85,37.87,prone
2023-10-02 00:41:47,0.0005,-0.0276,-1.0183,1.04,-2.62,0.18,-12.17,29.5,38.04,prone
2023-10-02 00:41:47,0.0004,-0.0267,-1.0184,0.67,-1.95,0.0,-12.35,29.16,37.22,prone
2023-10-02 00:41:47,0.0006,-0.0273,-1.0192,0.92,-2.32,0.18,-11.52,28.56,36.51,prone
2023-10-02 00:41:47,0.0006,-0.0277,-1.0181,0.85,-2.14,0.18,-12.1,29.28,37.21,prone
2023-10-02 00:41:47,0.0011,-0.0275,-1.0183,0.98,-2.38,0.24,-12.76,29.94,38.93,prone
2023-10-02 00:41:47,0.0007,-0.0272,-1.0184,1.04,-2.32,0.18,-11.58,28.94,37.63,prone
2023-10-02 00:41:47,0.0006,-0.028,-1.0192,1.1,-2.32,0.18,-11.8,29.17,37.28,prone
2023-10-02 00:41:47,0.0009,-0.0273,-1.0189,0.92,-2.2,0.18,-11.76,29.2,37.96,prone
2023-10-02 00:41:48,0.0006,-0.0272,-1.0176,1.1,-2.32,0.31,-12.08,29.24,36.85,prone
2023-10-02 00:41:48,0.0007,-0.0271,-1.0179,1.04,-2.32,0.18,-11.88,28.56,36.79,prone
2023-10-02 00:41:48,0.0005,-0.0272,-1.0186,1.04,-2.44,0.06,-12.21,29.02,37.33,prone
2023-10-02 00:41:48,0.0006,-0.0283,-1.0192,1.1,-2.2,0.12,-12.33,29.76,38.12,prone
2023-10-02 00:41:48,0.0004,-0.0272,-1.0181,0.98,-2.26,0.18,-11.99,28.93,36.74,prone
2023-10-02 00:41:48,0.0006,-0.0267,-1.0173,1.1,-2.26,0.06,-12.29,29.28,37.63,prone
2023-10-02 00:41:48,0.001,-0.0291,-1.019,1.16,-2.32,0.31,-11.85,29.47,37.67,prone
2023-10-02 00:41:48,0.0007,-0.0267,-1.0193,1.04,-2.2,0.12,-12.77,29.54,37.65,prone
2023-10-02 00:41:48,0.0005,-0.027,-1.0177,1.1,-2.32,0.18,-11.95,28.6,37.74,prone
2023-10-02 00:41:49,0.0004,-0.028,-1.02,1.04,-2.2,0.31,-12.3,29.32,38.04,prone
2023-10-02 00:41:49,0.0013,-0.0266,-1.0179,0.98,-2.5,0.06,-12.33,29.9,38.27,prone
2023-10-02 00:41:49,0.0006,-0.0265,-1.0171,0.98,-2.26,0.18,-12.26,29.49,36.96,prone
2023-10-02 00:41:49,0.0009,-0.0273,-1.0166,0.98,-2.2,0.12,-12.19,29.66,36.99,prone
2023-10-02 00:41:49,0.0009,-0.027,-1.0171,1.28,-2.44,0.24,-12.21,29.48,37.54,prone
2023-10-02 00:41:49,0.0005,-0.0269,-1.0189,1.1,-2.32,0.24,-12.46,29.11,37.54,prone
2023-10-02 00:41:49,0.0005,-0.0281,-1.0186,0.85,-2.56,0.12,-12.0,28.65,36.36,prone
2023-10-02 00:41:49,0.0005,-0.0272,-1.0183,0.92,-2.26,0.18,-12.61,29.11,37.44,prone
2023-10-02 00:41:49,0.001,-0.0273,-1.0186,0.98,-2.38,0.24,-12.32,28.94,38.2,prone
2023-10-02 00:41:50,0.0009,-0.0272,-1.0187,0.92,-2.44,0.12,-12.5,28.98,37.0,prone
2023-10-02 00:41:50,0.0,-0.0272,-1.0182,1.04,-2.26,0.24,-12.34,28.76,38.13,prone
2023-10-02 00:41:50,0.0005,-0.0269,-1.0182,1.16,-2.26,0.24,-12.33,29.85,37.33,prone
2023-10-02 00:41:50,0.0006,-0.0261,-1.0183,0.98,-2.14,0.24,-12.33,28.71,36.62,prone
2023-10-02 00:41:50,0.0006,-0.0272,-1.0179,1.1,-2.26,0.24,-12.52,28.47,36.38,prone
2023-10-02 00:41:50,0.0005,-0.0269,-1.0187,1.04,-2.26,0.12,-12.39,29.31,37.95,prone
2023-10-02 00:41:50,0.0006,-0.0271,-1.0188,1.16,-2.14,0.24,-12.77,29.14,38.26,prone
2023-10-02 00:41:50,0.0004,-0.028,-1.019,0.98,-2.2,0.18,-12.12,28.6,36.82,prone
2023-10-02 00:41:50,0.0006,-0.0275,-1.0187,0.98,-2.14,0.31,-12.48,28.83,38.45,prone
2023-10-02 00:41:50,0.0006,-0.0278,-1.0182,1.1,-2.2,0.24,-12.29,29.47,39.12,prone
2023-10-02 00:41:51,0.0007,-0.027,-1.0187,0.92,-2.08,0.18,-12.51,29.06,38.29,prone
2023-10-02 00:41:51,0.0012,-0.027,-1.0177,1.04,-2.08,0.12,-12.62,28.77,37.17,prone
2023-10-02 00:41:51,0.0004,-0.0272,-1.0193,1.04,-2.26,0.12,-12.01,29.28,38.32,prone
2023-10-02 00:41:51,0.0006,-0.0273,-1.0175,1.1,-2.26,0.24,-12.77,29.8,37.48,prone
2023-10-02 00:41:51,0.0006,-0.027,-1.0206,1.16,-2.32,0.12,-11.4,28.28,37.96,prone
2023-10-02 00:41:51,0.0006,-0.0275,-1.0164,1.04,-2.2,0.31,-12.24,29.32,37.71,prone
2023-10-02 00:41:51,0.0005,-0.0267,-1.0208,1.22,-2.08,0.31,-12.62,29.5,37.44,prone
2023-10-02 00:41:51,0.0006,-0.0275,-1.0184,0.92,-2.08,0.12,-12.06,29.08,37.49,prone
2023-10-02 00:41:51,0.0009,-0.0281,-1.0192,1.1,-2.08,0.37,-12.06,29.03,37.82,prone
2023-10-02 00:41:52,0.0005,-0.0267,-1.019,0.79,-2.01,0.12,-12.34,29.59,37.88,prone
2023-10-02 00:41:52,0.0006,-0.0283,-1.0188,1.16,-2.44,0.31,-12.68,29.26,37.26,prone
2023-10-02 00:41:52,0.0006,-0.0272,-1.0173,1.1,-2.01,0.24,-12.29,28.33,37.28,prone
2023-10-02 00:41:52,0.0007,-0.0275,-1.0186,0.92,-2.2,0.24,-11.99,29.21,37.89,prone
2023-10-02 00:41:52,0.0005,-0.0282,-1.019,0.98,-2.32,0.0,-12.38,29.33,38.38,prone
2023-10-02 00:41:52,0.0006,-0.0278,-1.0182,1.04,-2.14,0.18,-12.19,28.53,37.57,prone
2023-10-02 00:41:52,0.0005,-0.0273,-1.0182,0.92,-2.01,0.24,-11.87,29.7,38.46,prone
2023-10-02 00:41:52,0.0006,-0.0271,-1.019,1.16,-2.32,0.12,-12.02,29.65,38.88,prone
2023-10-02 00:41:52,0.0007,-0.0277,-1.0171,0.85,-2.01,0.18,-12.26,28.82,38.0,prone
2023-10-02 00:41:53,0.0006,-0.0272,-1.0186,1.04,-2.08,0.18,-12.37,28.7,37.84,prone
2023-10-02 00:41:53,0.0006,-0.0273,-1.0187,1.16,-2.14,0.43,-12.34,29.7,39.77,prone
2023-10-02 00:41:53,0.0009,-0.0278,-1.0193,0.92,-2.08,0.18,-11.95,29.46,37.59,prone
2023-10-02 00:41:53,0.0006,-0.0275,-1.0186,0.98,-2.26,0.24,-11.51,29.27,37.0,prone
2023-10-02 00:41:53,0.0007,-0.0282,-1.0183,0.98,-2.32,0.18,-11.68,29.66,37.93,prone
2023-10-02 00:41:53,0.0006,-0.0271,-1.0186,1.04,-2.2,0.18,-12.13,29.5,38.21,prone
2023-10-02 00:41:53,0.0006,-0.0269,-1.0192,1.1,-2.26,0.31,-12.45,28.64,37.35,prone
2023-10-02 00:41:53,0.0009,-0.0271,-1.0195,0.98,-2.26,0.12,-11.5,29.41,36.62,prone
2023-10-02 00:41:53,0.0007,-0.0271,-1.0181,0.85,-2.2,0.24,-13.06,29.06,37.95,prone
2023-10-02 00:41:53,0.001,-0.0264,-1.0168,0.98,-2.2,0.31,-11.46,29.58,38.28,prone
2023-10-02 00:41:54,0.001,-0.0277,-1.0184,0.92,-2.2,0.37,-11.38,28.98,37.79,prone
2023-10-02 00:41:54,0.001,-0.0272,-1.0172,1.04,-2.2,0.24,-12.19,29.55,37.98,prone
2023-10-02 00:41:54,0.0013,-0.0271,-1.0178,1.22,-2.14,0.31,-11.9,28.58,38.37,prone
2023-10-02 00:41:54,0.0005,-0.0282,-1.019,1.04,-2.08,0.24,-12.18,28.96,37.16,prone
2023-10-02 00:41:54,0.0005,-0.0277,-1.0183,0.85,-2.14,0.18,-12.22,28.72,37.34,prone
2023-10-02 00:41:54,0.0006,-0.0269,-1.0167,1.04,-2.38,0.12,-12.01,29.61,38.01,prone
2023-10-02 00:41:54,0.0006,-0.0269,-1.0192,1.04,-2.01,0.31,-12.18,28.74,37.32,prone
2023-10-02 00:41:54,0.0006,-0.0277,-1.0195,0.98,-2.32,0.24,-11.66,28.48,37.87,prone
2023-10-02 00:41:54,0.0005,-0.028,-1.0187,0.85,-2.32,0.18,-12.24,29.57,37.7,prone
2023-10-02 00:41:55,0.0006,-0.027,-1.0176,0.98,-2.32,0.31,-12.1,29.1,38.09,prone
2023-10-02 00:41:55,0.0006,-0.0275,-1.0188,0.85,-2.26,0.12,-11.78,29.02,37.12,prone
2023-10-02 00:41:55,0.001,-0.0278,-1.0189,0.98,-2.2,0.12,-12.08,29.26,38.48,prone
2023-10-02 00:41:55,0.0006,-0.0276,-1.0179,1.04,-2.26,0.12,-11.84,29.43,37.85,prone
2023-10-02 00:41:55,0.0006,-0.0273,-1.0179,0.85,-2.14,0.24,-12.7,28.77,37.55,prone
2023-10-02 00:41:55,0.0006,-0.0278,-1.0187,0.98,-2.26,0.12,-11.82,29.02,37.51,prone
2023-10-02 00:41:55,0.0006,-0.0271,-1.019,1.04,-2.32,0.24,-12.28,29.42,38.24,prone
2023-10-02 00:41:55,0.0007,-0.0283,-1.0184,1.04,-2.26,0.0,-11.99,29.47,37.19,prone
2023-10-02 00:41:55,0.0004,-0.0277,-1.0184,0.98,-2.2,0.18,-11.73,29.14,37.56,prone
2023-10-02 00:41:55,0.0006,-0.0269,-1.0184,1.1,-2.2,0.37,-11.94,29.3,37.1,prone
2023-10-02 00:41:56,0.0005,-0.027,-1.0184,0.85,-2.26,0.12,-12.35,29.98,38.24,prone
2023-10-02 00:41:56,0.0009,-0.0272,-1.0178,1.04,-2.32,0.12,-12.0,29.59,36.91,prone
2023-10-02 00:41:56,0.0004,-0.0277,-1.0178,1.16,-2.38,0.12,-11.72,28.55,36.15,prone
2023-10-02 00:41:56,0.0006,-0.0276,-1.0186,1.1,-2.26,0.37,-12.43,29.43,37.79,prone
2023-10-02 00:41:56,0.0004,-0.0265,-1.02,1.1,-2.2,0.31,-11.83,28.77,36.8,prone
2023-10-02 00:41:56,0.0006,-0.0282,-1.0173,0.92,-2.26,0.31,-12.0,29.1,37.22,prone
2023-10-02 00:41:56,0.0005,-0.027,-1.0179,1.22,-2.26,0.37,-12.28,29.17,37.82,prone
2023-10-02 00:41:56,0.0006,-0.0281,-1.0168,1.04,-2.2,0.43,-12.05,29.2,37.96,prone
2023-10-02 00:41:56,0.0005,-0.0278,-1.0192,0.85,-2.14,0.12,-12.4,28.96,36.77,prone
2023-10-02 00:41:57,0.0011,-0.028,-1.0178,0.85,-1.89,0.12,-11.65,29.05,36.72,prone
2023-10-02 00:41:57,0.0007,-0.0272,-1.0168,0.79,-2.32,0.06,-12.54,29.22,37.94,prone
2023-10-02 00:41:57,0.0006,-0.0275,-1.0165,1.04,-2.2,0.12,-12.17,28.97,36.33,prone
2023-10-02 00:41:57,0.0006,-0.0276,-1.0183,0.98,-2.08,0.12,-12.26,28.72,36.28,prone
2023-10-02 00:41:57,0.0007,-0.0267,-1.0187,0.98,-2.14,0.18,-12.4,30.02,38.33,prone
2023-10-02 00:41:57,0.0005,-0.0267,-1.0172,0.98,-2.2,0.18,-12.57,28.96,36.56,prone
2023-10-02 00:41:57,0.0006,-0.0273,-1.0182,1.22,-2.32,0.31,-12.15,29.37,37.24,prone
2023-10-02 00:41:57,0.0005,-0.0273,-1.0175,1.16,-2.14,0.18,-11.95,28.91,37.63,prone
2023-10-02 00:41:57,0.0002,-0.0265,-1.0189,1.16,-2.26,0.18,-12.34,29.5,37.37,prone
2023-10-02 00:41:58,0.0006,-0.0272,-1.0189,1.04,-2.14,0.18,-12.05,29.46,37.37,prone
2023-10-02 00:41:58,0.0006,-0.0273,-1.0178,1.04,-2.2,0.24,-12.08,29.2,37.04,prone
2023-10-02 00:41:58,0.0007,-0.0282,-1.0192,0.92,-2.08,0.37,-11.91,29.64,37.41,prone
2023-10-02 00:41:58,0.0007,-0.0275,-1.0186,1.1,-2.2,0.24,-12.05,30.35,36.73,prone
2023-10-02 00:41:58,0.001,-0.0287,-1.0186,1.22,-2.08,0.31,-11.43,29.0,36.51,prone
2023-10-02 00:41:58,0.0004,-0.0277,-1.0188,0.92,-2.08,0.06,-11.71,29.03,36.35,prone
2023-10-02 00:41:58,0.0007,-0.0276,-1.0193,0.92,-2.08,0.24,-11.49,29.77,37.48,prone
2023-10-02 00:41:58,0.0006,-0.0273,-1.0187,1.04,-2.2,0.24,-11.8,29.66,36.58,prone
2023-10-02 00:41:58,0.0007,-0.0284,-1.0197,1.22,-2.2,0.18,-12.12,29.13,36.56,prone
2023-10-02 00:41:58,0.0004,-0.0271,-1.019,1.16,-2.32,0.18,-12.04,29.77,38.05,prone
2023-10-02 00:41:59,0.0011,-0.0282,-1.0182,0.85,-2.2,0.12,-11.96,29.46,36.67,prone
2023-10-02 00:41:59,0.0005,-0.0272,-1.0188,0.92,-2.2,0.24,-11.62,28.49,35.79,prone
2023-10-02 00:41:59,0.0006,-0.0266,-1.019,1.1,-2.2,0.24,-12.06,29.19,36.63,prone
2023-10-02 00:41:59,0.0006,-0.0286,-1.0171,1.1,-2.01,0.24,-12.19,29.63,37.4,prone
2023-10-02 00:41:59,-0.0002,-0.0283,-1.017,0.85,-2.08,0.18,-12.62,28.81,37.44,prone
2023-10-02 00:41:59,0.001,-0.0266,-1.0188,0.79,-2.2,0.24,-11.38,28.89,36.51,prone
2023-10-02 00:41:59,0.0007,-0.0275,-1.0178,1.04,-1.95,0.24,-12.85,29.63,37.02,prone
2023-10-02 00:41:59,0.0006,-0.0273,-1.0193,0.85,-2.32,0.18,-12.46,29.43,37.16,prone
2023-10-02 00:41:59,0.0007,-0.0255,-1.0195,0.79,-2.14,0.06,-12.54,29.08,36.91,prone
2023-10-02 00:42:00,0.0006,-0.027,-1.0194,0.98,-2.08,0.31,-12.35,29.2,37.83,prone
2023-10-02 00:42:00,0.0006,-0.0272,-1.0186,0.98,-2.2,0.18,-12.9,29.65,36.95,prone
2023-10-02 00:42:00,0.0009,-0.0272,-1.0193,1.16,-2.38,0.37,-12.15,28.82,37.5,prone
2023-10-02 00:42:00,0.0007,-0.0271,-1.0194,0.98,-2.2,0.24,-12.02,28.82,36.85,prone
2023-10-02 00:42:00,0.0006,-0.0266,-1.0193,1.04,-2.08,0.37,-12.35,29.3,37.37,prone
2023-10-02 00:42:00,0.0006,-0.0267,-1.0193,1.16,-2.26,0.18,-12.02,28.77,37.05,prone
2023-10-02 00:42:00,0.0011,-0.0271,-1.019,1.04,-2.2,0.37,-12.74,28.81,36.85,prone
2023-10-02 00:42:00,0.0006,-0.0278,-1.0181,1.1,-2.26,0.31,-12.21,29.65,37.48,prone
2023-10-02 00:42:00,0.0004,-0.0281,-1.02,1.04,-2.32,0.18,-12.52,30.1,37.16,prone
2023-10-02 00:42:01,0.0007,-0.0278,-1.0188,1.04,-2.26,0.12,-12.59,28.97,36.77,prone
2023-10-02 00:42:01,0.0005,-0.0276,-1.0188,0.92,-2.38,0.18,-12.24,29.17,37.33,prone
2023-10-02 00:42:01,0.0006,-0.0282,-1.0203,0.98,-2.2,0.24,-12.6,30.04,36.77,prone
2023-10-02 00:42:01,0.0005,-0.027,-1.0205,0.92,-2.08,0.24,-12.56,28.89,36.93,prone
2023-10-02 00:42:01,0.0007,-0.027,-1.0193,1.1,-2.32,0.24,-12.49,28.32,37.95,prone
2023-10-02 00:42:01,0.0005,-0.0276,-1.0203,0.98,-2.01,0.18,-12.67,29.35,38.44,prone
2023-10-02 00:42:01,0.0009,-0.027,-1.0177,1.04,-2.26,0.24,-12.68,28.88,36.04,prone
2023-10-02 00:42:01,0.0006,-0.0277,-1.0186,0.98,-2.2,0.24,-11.94,29.42,36.04,prone
2023-10-02 00:42:01,0.001,-0.028,-1.0199,0.98,-1.95,0.18,-12.1,29.52,38.09,prone
2023-10-02 00:42:01,0.0006,-0.027,-1.0184,0.92,-2.26,0.24,-12.56,30.37,38.18,prone
2023-10-02 00:42:02,0.0009,-0.0265,-1.0187,1.1,-2.44,0.24,-12.43,29.21,37.19,prone
2023-10-02 00:42:02,0.0006,-0.0273,-1.019,0.85,-2.26,0.24,-12.01,29.19,35.79,prone
2023-10-02 00:42:02,0.0005,-0.0277,-1.0192,0.85,-2.14,0.12,-12.29,29.57,38.07,prone
2023-10-02 00:42:02,0.0,-0.0275,-1.019,0.98,-2.32,0.24,-12.65,29.32,36.85,prone
2023-10-02 00:42:02,0.0006,-0.028,-1.0193,1.1,-2.2,0.24,-11.36,28.64,36.66,prone
2023-10-02 00:42:02,0.0004,-0.0271,-1.0179,0.98,-2.38,0.18,-12.59,29.26,37.5,prone
2023-10-02 00:42:02,0.0009,-0.0273,-1.0194,1.16,-2.38,0.18,-12.79,29.59,36.93,prone
2023-10-02 00:42:02,0.0004,-0.0269,-1.0172,0.92,-2.26,0.12,-12.32,29.26,36.41,prone
2023-10-02 00:42:02,0.0009,-0.0271,-1.0187,1.1,-2.38,0.31,-11.78,28.72,37.13,prone
2023-10-02 00:42:03,0.0006,-0.027,-1.0194,1.16,-2.26,0.18,-12.04,29.36,37.67,prone
2023-10-02 00:42:03,0.0005,-0.0281,-1.0173,1.22,-2.2,0.31,-13.31,29.47,35.96,prone
2023-10-02 00:42:03,0.0007,-0.0272,-1.0184,1.1,-2.08,0.24,-12.26,28.64,35.63,prone
2023-10-02 00:42:03,0.0006,-0.0273,-1.0193,1.1,-2.2,0.18,-12.4,28.75,37.56,prone
2023-10-02 00:42:03,0.0006,-0.0271,-1.0187,0.98,-2.38,0.12,-12.32,29.35,37.1,prone
2023-10-02 00:42:03,0.0005,-0.0278,-1.0195,0.92,-2.08,0.24,-12.24,28.42,37.79,prone
2023-10-02 00:42:03,0.0006,-0.0269,-1.019,0.92,-2.14,0.18,-12.01,29.1,36.61,prone
2023-10-02 00:42:03,0.0006,-0.0267,-1.0186,1.1,-2.32,0.24,-12.33,29.36,37.79,prone
2023-10-02 00:42:03,0.0006,-0.0273,-1.0187,1.04,-2.2,0.24,-12.77,29.24,37.05,prone
2023-10-02 00:42:04,0.0005,-0.0269,-1.0215,1.16,-2.38,0.18,-12.11,28.92,38.18,prone
2023-10-02 00:42:04,0.0006,-0.0287,-1.0176,1.16,-2.26,0.24,-13.06,29.71,37.51,prone
2023-10-02 00:42:04,0.0012,-0.0272,-1.021,1.04,-2.08,0.24,-12.05,29.11,38.56,prone
2023-10-02 00:42:04,0.0007,-0.0282,-1.0182,0.79,-2.08,0.24,-11.73,28.97,36.82,prone
2023-10-02 00:42:04,0.0005,-0.0267,-1.0181,0.92,-2.08,0.24,-12.07,29.37,37.66,prone
2023-10-02 00:42:04,0.0005,-0.0275,-1.0182,0.92,-2.2,0.31,-12.39,29.8,39.09,prone
2023-10-02 00:42:04,0.0006,-0.0271,-1.0194,0.92,-2.2,0.18,-12.39,28.92,37.07,prone
2023-10-02 00:42:04,0.0005,-0.0275,-1.0187,0.85,-2.2,0.18,-11.8,28.86,36.88,prone
2023-10-02 00:42:04,0.0006,-0.0266,-1.02,0.79,-2.26,0.12,-12.9,29.65,36.71,prone
2023-10-02 00:42:04,0.0006,-0.028,-1.0186,0.98,-2.2,0.31,-12.21,29.15,36.02,prone
2023-10-02 00:42:05,0.0005,-0.0272,-1.0184,1.22,-2.2,0.31,-12.35,29.15,36.05,prone
2023-10-02 00:42:05,0.0006,-0.0272,-1.0182,1.04,-2.2,0.06,-11.87,29.26,38.26,prone
2023-10-02 00:42:05,0.0004,-0.0278,-1.0183,0.92,-2.2,0.37,-11.74,29.92,37.05,prone
2023-10-02 00:42:05,0.0004,-0.0283,-1.0187,1.16,-2.14,0.24,-12.23,28.91,37.08,prone
2023-10-02 00:42:05,0.0005,-0.0275,-1.019,1.04,-2.08,0.18,-12.04,29.04,37.07,prone
2023-10-02 00:42:05,0.0007,-0.0277,-1.019,0.98,-2.26,0.18,-11.89,29.28,37.24,prone
2023-10-02 00:42:05,0.0007,-0.0271,-1.0186,1.1,-2.08,0.18,-12.37,29.46,37.77,prone
2023-10-02 00:42:05,0.0009,-0.0267,-1.0187,0.92,-2.32,0.18,-11.66,28.86,37.72,prone
2023-10-02 00:42:05,0.0006,-0.0271,-1.0187,1.1,-2.08,0.31,-11.66,29.14,36.85,prone
