Timestamp,AccelX,AccelY,AccelZ,GyroX,GyroY,GyroZ,MagX,MagY,MagZ,Posture
2023-10-02 01:27:39,-0.0865,-0.0035,-1.0117,0.92,-2.14,0.12,73.01,-63.28,7.68,side
2023-10-02 01:27:39,-0.0826,-0.0044,-1.021,1.1,-1.95,0.12,72.73,-63.09,7.52,side
2023-10-02 01:27:39,-0.087,-0.0049,-1.014,0.85,-1.95,0.12,72.94,-62.98,7.57,side
2023-10-02 01:27:39,-0.0822,-0.0043,-1.015,0.92,-2.01,0.24,72.86,-63.11,7.85,side
2023-10-02 01:27:39,-0.0883,-0.0039,-1.0153,0.98,-1.95,0.24,72.97,-62.79,7.12,side
2023-10-02 01:27:40,-0.0863,-0.0043,-1.017,0.73,-2.01,0.18,73.17,-63.49,7.37,side
2023-10-02 01:27:40,-0.0867,-0.0067,-1.0146,0.92,-2.01,0.24,73.41,-63.64,7.69,side
2023-10-02 01:27:40,-0.0831,-0.0042,-1.0142,0.85,-1.89,0.24,73.14,-63.02,7.42,side
2023-10-02 01:27:40,-0.0857,-0.0031,-1.0155,0.92,-1.83,0.12,72.66,-62.38,7.87,side
2023-10-02 01:27:40,-0.0856,-0.0027,-1.0153,0.92,-1.83,0.12,72.83,-63.34,7.08,side
2023-10-02 01:27:40,-0.0847,-0.0054,-1.0157,0.92,-2.08,0.06,72.84,-63.49,7.32,side
2023-10-02 01:27:40,-0.082,-0.0031,-1.0149,0.98,-2.08,0.06,73.61,-63.6,7.09,side
2023-10-02 01:27:40,-0.0833,-0.0055,-1.0156,0.85,-1.95,0.18,73.4,-63.38,7.32,side
2023-10-02 01:27:40,-0.0848,-0.002,-1.014,0.98,-2.08,0.24,73.57,-63.45,6.52,side
2023-10-02 01:27:40,-0.0846,-0.0079,-1.0148,0.98,-2.01,0.12,73.73,-63.4,7.46,side
2023-10-02 01:27:41,-0.0833,-0.0028,-1.0127,1.1,-1.95,0.18,72.96,-63.23,7.85,side
2023-10-02 01:27:41,-0.0852,-0.0067,-1.0142,0.85,-1.89,0.06,73.28,-63.7,6.32,side
2023-10-02 01:27:41,-0.0814,-0.0024,-1.0146,0.92,-1.89,0.18,73.02,-63.46,7.42,side
2023-10-02 01:27:41,-0.0872,-0.0062,-1.0155,0.79,-1.95,0.0,73.51,-62.54,8.25,side
2023-10-02 01:27:41,-0.0822,-0.0034,-1.0162,0.98,-2.08,0.12,73.21,-62.99,6.43,side
2023-10-02 01:27:41,-0.0861,-0.0034,-1.015,0.98,-2.2,0.31,73.11,-64.03,6.48,side
2023-10-02 01:27:41,-0.0844,-0.0043,-1.016,0.85,-1.77,0.12,72.73,-62.94,8.28,side
2023-10-02 01:27:41,-0.0801,-0.0421,-1.0205,0.79,-2.2,-0.98,72.8,-63.54,8.29,side
2023-10-02 01:27:41,-0.0697,-0.0869,-1.0172,-0.98,-4.39,-6.65,65.23,-69.52,8.84,side
2023-10-02 01:27:41,-0.0563,-0.0115,-1.021,10.31,-0.61,-8.61,59.39,-72.05,10.79,side
2023-10-02 01:27:42,-0.0891,0.0012,-1.0778,-24.23,2.93,-1.71,55.52,-69.79,12.16,side
2023-10-02 01:27:42,-0.1639,-0.1086,-1.0612,-0.24,-0.61,-1.83,57.89,-61.1,4.0,side
2023-10-02 01:27:42,-0.1149,-0.0244,-1.0057,1.28,22.46,-2.26,35.44,-46.25,-1.37,side
2023-10-02 01:27:42,-0.1711,-0.0464,-0.957,-8.91,30.64,-6.47,11.24,-31.09,-3.64,side
2023-10-02 01:27:42,-0.2743,-0.168,-1.0012,-11.17,11.17,-16.91,-4.41,-21.04,0.9,side
2023-10-02 01:27:42,-0.3456,-0.1609,-0.9889,-2.99,16.85,-11.6,-18.1,-17.3,10.4,side
2023-10-02 01:27:42,-0.312,-0.1228,-0.9343,-14.16,4.76,-8.73,-25.78,-11.58,19.91,side
2023-10-02 01:27:42,-0.3442,-0.1211,-0.9401,9.22,-10.44,-9.28,-30.04,-8.46,24.85,side
2023-10-02 01:27:42,-0.3475,-0.1506,-0.9772,-27.59,6.65,-15.69,-29.33,-6.7,27.12,side
2023-10-02 01:27:42,-0.283,-0.2349,-0.9829,-47.79,-42.79,-12.08,-29.64,-5.26,31.91,side
2023-10-02 01:27:43,-0.2279,-0.3511,-0.9633,-100.34,-56.88,-11.35,-30.59,0.12,44.02,side
2023-10-02 01:27:43,-0.1986,-0.582,-0.8632,-70.31,-17.52,-13.18,-29.58,10.46,52.51,side
2023-10-02 01:27:43,-0.2483,-0.6724,-0.7367,-89.29,-15.99,-27.16,-27.51,21.24,55.94,side
2023-10-02 01:27:43,-0.2211,-0.7008,-0.6349,-106.87,-28.69,-41.14,-25.07,32.63,54.83,side
2023-10-02 01:27:43,-0.2067,-0.876,-0.421,-100.77,-15.2,-23.5,-23.38,42.11,51.76,side
2023-10-02 01:27:43,-0.2428,-0.9651,-0.2164,-104.55,3.85,-4.46,-21.14,47.38,48.5,side
2023-10-02 01:27:43,-0.2725,-0.9479,-0.0293,-121.46,15.32,-0.79,-20.74,53.05,39.43,side
2023-10-02 01:27:43,-0.2754,-0.8594,0.2631,-102.36,4.76,5.07,-20.28,58.14,31.14,side
2023-10-02 01:27:43,-0.2089,-0.8041,0.4307,-81.79,56.76,40.47,-16.69,60.39,23.74,side
2023-10-02 01:27:43,-0.0576,-0.8616,0.5609,2.87,23.01,18.62,-12.27,61.56,19.18,side
2023-10-02 01:27:44,-0.1646,-0.8245,0.3354,2.62,-30.03,35.03,-12.7,64.12,21.12,side
2023-10-02 01:27:44,-0.035,-0.9508,0.4257,28.02,3.97,-32.04,-13.0,63.83,23.96,side
2023-10-02 01:27:44,-0.1146,-1.005,0.3152,23.62,2.14,3.6,-13.55,62.24,26.27,side
2023-10-02 01:27:44,-0.1121,-0.8655,0.4022,-16.6,-24.17,0.24,-13.93,62.59,22.81,side
2023-10-02 01:27:44,-0.1116,-0.9093,0.3718,-45.9,-14.1,-4.7,-12.38,65.16,22.18,side
2023-10-02 01:27:44,-0.1255,-0.8496,0.4316,-27.34,-17.03,1.28,-11.65,64.47,19.73,side
2023-10-02 01:27:44,-0.0527,-0.9138,0.5039,41.69,18.86,19.53,-12.28,65.61,21.64,side
2023-10-02 01:27:44,0.0035,-0.969,0.2672,33.26,-1.1,-7.75,-1.71,54.16,42.52,side
2023-10-02 01:27:44,0.0018,-0.9683,0.2694,0.98,-2.01,0.12,-2.19,53.93,41.88,side
2023-10-02 01:27:44,0.0037,-0.9691,0.2681,1.22,-2.01,0.18,-2.09,54.46,41.64,side
2023-10-02 01:27:45,0.0028,-0.9692,0.2673,1.22,-2.32,0.24,-1.86,53.94,43.09,side
2023-10-02 01:27:45,0.0042,-0.9684,0.2676,1.04,-2.2,0.18,-1.72,53.47,42.25,side
2023-10-02 01:27:45,0.0042,-0.9696,0.2678,0.98,-2.08,0.24,-2.17,54.52,41.58,side
2023-10-02 01:27:45,0.0034,-0.9691,0.2684,1.1,-2.14,0.12,-2.16,53.64,42.0,side
2023-10-02 01:27:45,0.004,-0.9691,0.2682,0.92,-2.08,0.06,-1.67,53.56,42.55,side
2023-10-02 01:27:45,0.0028,-0.9694,0.2675,1.04,-2.08,0.18,-2.7,54.64,40.91,side
2023-10-02 01:27:45,0.0027,-0.9689,0.2673,0.79,-2.2,0.18,-2.14,54.16,42.7,side
2023-10-02 01:27:45,0.0037,-0.9688,0.2694,1.04,-2.26,0.18,-2.45,53.44,41.88,side
2023-10-02 01:27:45,0.0039,-0.9696,0.2684,0.98,-2.01,0.37,-1.53,52.91,41.72,side
2023-10-02 01:27:45,0.0033,-0.9694,0.2678,0.92,-2.2,0.12,-2.47,53.99,41.74,side
2023-10-02 01:27:46,0.0022,-0.97,0.2683,1.1,-2.26,0.06,-2.08,53.63,42.53,side
2023-10-02 01:27:46,0.0046,-0.9683,0.2701,0.92,-2.01,0.18,-1.67,53.38,41.58,side
2023-10-02 01:27:46,0.0038,-0.97,0.2678,0.85,-1.89,0.12,-2.55,53.71,42.2,side
2023-10-02 01:27:46,0.0035,-0.9683,0.2662,0.85,-2.08,0.12,-2.16,52.77,42.05,side
2023-10-02 01:27:46,0.0044,-0.9691,0.2682,1.04,-2.14,0.12,-2.23,52.98,42.29,side
2023-10-02 01:27:46,0.0039,-0.9688,0.2677,0.73,-2.08,0.24,-2.47,53.61,42.31,side
2023-10-02 01:27:46,0.0037,-0.9679,0.2693,0.73,-2.2,0.06,-2.39,53.87,41.72,side
2023-10-02 01:27:46,0.005,-0.9692,0.2684,0.98,-2.08,0.06,-2.09,53.3,42.0,side
2023-10-02 01:27:46,0.0031,-0.9685,0.2693,0.61,-2.26,0.0,-2.12,53.45,41.76,side
2023-10-02 01:27:47,0.0044,-0.969,0.2682,0.85,-2.08,0.06,-2.51,54.09,42.3,side
2023-10-02 01:27:47,0.004,-0.9685,0.2679,0.92,-2.14,0.18,-2.4,53.67,41.83,side
2023-10-02 01:27:47,0.0024,-0.9692,0.2694,1.04,-2.08,0.18,-2.14,52.99,42.61,side
2023-10-02 01:27:47,0.004,-0.9705,0.2675,0.79,-1.95,0.18,-2.44,53.36,42.47,side
2023-10-02 01:27:47,0.004,-0.9691,0.2689,1.1,-2.14,0.31,-2.58,54.39,41.38,side
2023-10-02 01:27:47,0.0034,-0.969,0.2682,0.92,-2.01,0.0,-2.2,52.71,41.14,side
2023-10-02 01:27:47,0.0038,-0.9688,0.2686,0.98,-2.08,0.24,-1.86,53.42,41.32,side
2023-10-02 01:27:47,0.0032,-0.9689,0.2683,1.1,-2.2,0.24,-2.54,54.49,41.97,side
2023-10-02 01:27:47,0.0035,-0.9691,0.2676,1.1,-2.2,0.24,-2.61,54.31,42.22,side
2023-10-02 01:27:47,0.0046,-0.9695,0.2682,1.04,-2.14,0.12,-2.08,52.72,42.16,side
2023-10-02 01:27:48,0.004,-0.9683,0.2693,1.1,-1.83,0.06,-2.37,53.81,43.05,side
2023-10-02 01:27:48,0.0038,-0.9684,0.2672,0.92,-2.14,0.18,-2.49,54.82,42.09,side
2023-10-02 01:27:48,0.0034,-0.9692,0.2664,0.98,-2.2,0.06,-1.67,53.16,42.59,side
2023-10-02 01:27:48,0.0048,-0.9694,0.2692,1.04,-2.2,0.06,-2.84,53.49,41.71,side
2023-10-02 01:27:48,0.0042,-0.9689,0.2686,0.73,-2.08,0.18,-2.53,54.25,42.16,side
2023-10-02 01:27:48,0.0022,-0.9694,0.269,1.04,-2.14,0.24,-2.29,53.05,41.65,side
2023-10-02 01:27:48,0.0043,-0.9677,0.2697,0.85,-2.01,0.06,-2.61,53.53,41.71,side
2023-10-02 01:27:48,0.0046,-0.9694,0.2579,0.85,-1.95,0.18,-2.12,54.27,41.92,side
2023-10-02 01:27:48,0.0051,-0.9686,0.2701,0.92,-2.26,0.24,-2.03,53.74,42.46,side
2023-10-02 01:27:48,0.0079,-0.969,0.2622,1.1,-2.2,0.24,-2.31,53.56,42.8,side
2023-10-02 01:27:49,-0.0004,-0.9689,0.269,1.16,-2.32,0.24,-2.1,53.48,41.89,side
2023-10-02 01:27:49,0.0027,-0.9694,0.2655,1.04,-2.32,0.12,-2.4,54.36,41.65,side
2023-10-02 01:27:49,0.0077,-0.9698,0.2639,0.85,-2.2,0.12,-2.49,53.77,42.66,side
2023-10-02 01:27:49,0.0016,-0.9673,0.2733,0.79,-1.95,0.12,-2.09,53.86,42.43,side
2023-10-02 01:27:49,0.0045,-0.9692,0.2643,0.98,-2.08,0.18,-2.88,54.46,42.9,side
2023-10-02 01:27:49,0.0043,-0.9679,0.2684,1.04,-2.2,0.24,-2.33,54.05,42.81,side
2023-10-02 01:27:49,0.0043,-0.9692,0.2668,0.98,-2.14,0.31,-2.66,53.67,41.47,side
2023-10-02 01:27:49,0.0046,-0.9684,0.2695,0.85,-2.08,0.06,-2.77,53.99,42.59,side
2023-10-02 01:27:49,0.0045,-0.969,0.2677,0.98,-2.14,0.18,-2.45,54.26,42.47,side
2023-10-02 01:27:50,0.0045,-0.9677,0.2668,0.92,-1.95,0.18,-2.04,53.64,41.86,side
2023-10-02 01:27:50,0.0045,-0.968,0.2683,0.98,-2.01,0.0,-2.47,53.76,41.53,side
2023-10-02 01:27:50,0.0034,-0.9681,0.2648,0.85,-1.83,0.24,-2.42,54.52,42.24,side
2023-10-02 01:27:50,0.004,-0.9673,0.2708,0.98,-2.08,0.24,-2.05,54.09,42.22,side
2023-10-02 01:27:50,0.0023,-0.9698,0.2643,0.92,-2.01,0.12,-1.89,53.37,42.07,side
2023-10-02 01:27:50,0.0038,-0.9694,0.2689,1.1,-2.14,0.06,-2.26,53.8,41.21,side
2023-10-02 01:27:50,0.0032,-0.9694,0.2673,1.04,-2.14,0.18,-3.17,54.16,41.16,side
2023-10-02 01:27:50,0.0049,-0.9691,0.2704,1.04,-2.01,0.31,-1.72,53.63,43.35,side
2023-10-02 01:27:50,0.0037,-0.9701,0.2668,1.16,-1.89,0.18,-2.17,53.92,41.42,side
2023-10-02 01:27:51,0.0044,-0.9692,0.2684,1.16,-2.01,0.24,-2.45,54.2,41.66,side
2023-10-02 01:27:51,0.0055,-0.968,0.2668,0.85,-2.01,0.0,-2.0,53.43,43.09,side
2023-10-02 01:27:51,0.0037,-0.9681,0.2689,1.22,-2.08,0.12,-2.82,53.82,41.55,side
2023-10-02 01:27:51,0.004,-0.9678,0.2684,0.98,-2.08,0.12,-2.64,54.32,42.82,side
2023-10-02 01:27:51,0.0037,-0.9691,0.2678,1.16,-1.95,0.24,-2.81,53.86,42.74,side
2023-10-02 01:27:51,0.0042,-0.9683,0.2699,0.98,-2.14,0.06,-2.21,53.39,42.7,side
2023-10-02 01:27:51,0.0035,-0.9692,0.2684,0.73,-1.95,0.18,-2.56,53.96,42.24,side
2023-10-02 01:27:51,0.0038,-0.9686,0.2689,1.04,-2.14,0.24,-3.14,54.5,42.9,side
2023-10-02 01:27:51,0.0039,-0.9695,0.2687,0.92,-2.01,0.18,-2.14,54.46,43.49,side
2023-10-02 01:27:51,0.0039,-0.968,0.2688,0.92,-2.01,0.06,-2.16,54.09,43.01,side
2023-10-02 01:27:52,0.0039,-0.9694,0.2683,1.16,-2.14,0.12,-2.62,54.11,42.07,side
2023-10-02 01:27:52,0.0039,-0.9681,0.269,1.22,-1.95,0.12,-2.81,53.98,43.12,side
2023-10-02 01:27:52,0.0039,-0.9692,0.2688,0.98,-2.08,0.12,-1.79,53.28,41.92,side
2023-10-02 01:27:52,0.0034,-0.9683,0.2694,1.04,-2.08,0.31,-2.55,54.47,42.38,side
2023-10-02 01:27:52,0.0043,-0.9688,0.2703,1.1,-2.08,0.18,-2.05,53.78,41.38,side
2023-10-02 01:27:52,0.0048,-0.9692,0.267,1.16,-1.95,0.18,-2.62,53.58,41.42,side
2023-10-02 01:27:52,0.0021,-0.9683,0.2705,1.1,-2.14,0.31,-2.32,53.72,41.42,side
2023-10-02 01:27:52,0.0054,-0.969,0.2676,1.04,-2.01,0.24,-2.69,53.98,42.05,side
2023-10-02 01:27:52,0.0031,-0.9683,0.2703,0.85,-2.08,0.18,-2.44,53.75,41.85,side
2023-10-02 01:27:53,0.0052,-0.9377,0.269,0.92,-1.83,0.24,-1.68,53.04,41.88,side
2023-10-02 01:27:53,0.0039,-0.9675,0.2699,0.85,-1.95,0.18,-2.5,53.87,40.52,side
2023-10-02 01:27:53,0.0029,-0.9678,0.2684,0.92,-1.83,0.37,-2.72,53.93,42.32,side
2023-10-02 01:27:53,0.0031,-0.9686,0.2692,0.98,-2.01,0.12,-2.16,53.2,40.78,side
2023-10-02 01:27:53,0.004,-0.97,0.2688,1.1,-2.01,0.12,-2.23,54.11,42.46,side
2023-10-02 01:27:53,0.0032,-0.9692,0.269,0.98,-1.89,0.0,-2.84,54.14,41.83,side
2023-10-02 01:27:53,0.0039,-0.9707,0.2687,0.98,-2.14,0.06,-1.81,53.28,42.7,side
2023-10-02 01:27:53,0.0045,-0.9684,0.2677,1.1,-1.95,0.24,-2.31,53.48,42.0,side
2023-10-02 01:27:53,0.004,-0.9681,0.2679,1.1,-1.83,0.18,-2.6,54.75,41.39,side
2023-10-02 01:27:54,0.0049,-0.968,0.2688,0.98,-2.08,0.24,-1.81,53.72,42.36,side
2023-10-02 01:27:54,0.0043,-0.9696,0.2683,0.79,-2.08,0.31,-2.39,53.32,41.22,side
2023-10-02 01:27:54,0.0055,-0.9691,0.269,0.79,-2.08,0.12,-2.59,54.32,42.16,side
2023-10-02 01:27:54,0.0043,-0.9688,0.2673,0.98,-1.95,0.18,-2.69,54.02,41.58,side
2023-10-02 01:27:54,0.0034,-0.9688,0.2687,0.85,-1.95,0.18,-2.66,53.37,41.64,side
2023-10-02 01:27:54,0.0046,-0.9701,0.2676,0.85,-1.89,0.18,-2.45,53.74,42.58,side
2023-10-02 01:27:54,0.0043,-0.9686,0.2687,0.85,-1.95,0.18,-2.97,54.96,40.61,side
2023-10-02 01:27:54,0.0034,-0.9686,0.2684,0.98,-2.01,0.12,-2.26,53.92,41.58,side
2023-10-02 01:27:54,0.0039,-0.9691,0.2693,0.85,-1.89,0.12,-2.56,53.32,42.07,side
2023-10-02 01:27:54,0.0059,-0.9684,0.2681,1.04,-2.01,0.06,-2.84,53.71,42.3,side
2023-10-02 01:27:55,0.0038,-0.9691,0.2677,0.92,-1.83,0.12,-3.37,53.85,42.55,side
2023-10-02 01:27:55,0.0037,-0.9689,0.2693,1.16,-2.08,0.12,-2.77,53.39,42.41,side
2023-10-02 01:27:55,0.0049,-0.9691,0.2698,1.16,-2.08,0.06,-3.27,54.25,42.65,side
2023-10-02 01:27:55,0.0088,-0.9713,0.261,1.1,-1.83,0.06,-2.83,54.24,42.02,side
2023-10-02 01:27:55,0.0022,-0.9705,0.2626,0.98,-2.08,0.18,-2.91,53.39,41.56,side
2023-10-02 01:27:55,0.0089,-0.9659,0.2722,0.92,-1.95,0.24,-2.71,53.23,41.39,side
2023-10-02 01:27:55,0.0037,-0.9702,0.2631,0.92,-2.14,0.06,-3.17,54.82,42.31,side
2023-10-02 01:27:55,0.005,-0.9677,0.2727,0.98,-2.01,0.24,-2.98,53.88,42.09,side
2023-10-02 01:27:55,0.0051,-0.97,0.2662,0.98,-1.89,0.12,-2.17,53.21,42.29,side
2023-10-02 01:27:56,0.0044,-0.9688,0.2695,1.04,-2.01,0.12,-2.34,53.69,41.89,side
2023-10-02 01:27:56,0.0026,-0.9705,0.2692,1.1,-1.95,0.12,-2.6,53.89,42.41,side
2023-10-02 01:27:56,0.0095,-0.9683,0.2654,1.1,-1.95,0.12,-2.37,53.21,42.58,side
2023-10-02 01:27:56,0.0016,-0.9697,0.2698,0.98,-2.08,0.18,-3.75,54.03,42.32,side
2023-10-02 01:27:56,0.0089,-0.9683,0.2662,1.04,-2.08,0.12,-3.54,54.5,42.69,side
2023-10-02 01:27:56,-0.0001,-0.9652,0.2664,0.92,-2.2,0.31,-3.25,53.75,41.72,side
2023-10-02 01:27:56,0.0073,-0.9629,0.2731,1.04,-2.2,0.18,-2.65,54.27,41.14,side
2023-10-02 01:27:56,0.0042,-0.9702,0.2634,0.92,-2.26,0.18,-3.05,54.63,42.14,side
2023-10-02 01:27:56,0.0032,-0.9696,0.2704,0.85,-2.08,0.06,-3.15,54.25,42.75,side
2023-10-02 01:27:57,0.004,-0.97,0.267,0.92,-2.2,0.06,-2.82,53.12,42.86,side
2023-10-02 01:27:57,0.005,-0.9691,0.2664,0.92,-2.14,0.12,-2.99,54.2,42.02,side
2023-10-02 01:27:57,0.0029,-0.9689,0.2662,0.98,-2.26,0.12,-3.3,54.08,41.54,side
2023-10-02 01:27:57,0.0033,-0.9689,0.2662,1.04,-2.08,0.18,-2.81,53.65,42.54,side
2023-10-02 01:27:57,0.0034,-0.9694,0.2675,0.92,-1.95,0.18,-3.14,54.11,41.44,side
2023-10-02 01:27:57,0.0035,-0.969,0.2659,0.85,-2.14,0.12,-3.41,54.43,42.24,side
2023-10-02 01:27:57,0.004,-0.9696,0.2676,0.98,-2.01,0.18,-2.75,53.96,42.3,side
2023-10-02 01:27:57,0.0034,-0.9705,0.2653,1.04,-2.2,0.12,-2.44,53.09,42.53,side
2023-10-02 01:27:57,0.0035,-0.9696,0.2683,1.04,-2.08,0.24,-2.81,54.05,42.21,side
2023-10-02 01:27:57,0.0044,-0.97,0.2659,0.92,-2.01,0.18,-2.95,54.06,41.87,side
2023-10-02 01:27:58,0.0043,-0.9688,0.2671,0.98,-2.08,0.0,-2.67,53.32,41.92,side
2023-10-02 01:27:58,0.0045,-0.9689,0.2681,1.04,-2.01,0.0,-2.62,54.2,41.52,side
2023-10-02 01:27:58,0.0038,-0.97,0.2667,0.92,-2.14,0.18,-2.82,54.49,41.47,side
2023-10-02 01:27:58,0.004,-0.9698,0.2676,1.22,-2.08,0.06,-2.88,53.64,42.3,side
2023-10-02 01:27:58,0.0044,-0.9695,0.2664,1.1,-2.08,0.12,-2.71,53.99,42.25,side
2023-10-02 01:27:58,0.0039,-0.9688,0.2675,0.92,-2.08,0.18,-3.1,54.69,42.21,side
2023-10-02 01:27:58,0.0039,-0.9694,0.2676,0.92,-2.01,0.06,-2.61,53.69,42.25,side
2023-10-02 01:27:58,0.0028,-0.97,0.2675,0.85,-1.95,0.06,-2.59,52.91,41.92,side
2023-10-02 01:27:58,0.0049,-0.9692,0.2659,0.85,-2.01,0.12,-2.64,53.64,41.54,side
2023-10-02 01:27:59,0.0044,-0.9686,0.267,0.85,-2.2,0.24,-3.11,53.8,41.52,side
2023-10-02 01:27:59,0.0051,-0.969,0.2666,0.73,-2.08,0.12,-2.6,53.53,41.99,side
2023-10-02 01:27:59,0.0023,-0.9689,0.2671,0.98,-2.08,0.12,-3.44,53.53,42.38,side
2023-10-02 01:27:59,0.0051,-0.9695,0.2683,0.92,-2.26,0.0,-3.06,54.38,41.21,side
2023-10-02 01:27:59,0.0051,-0.9697,0.2666,0.92,-2.08,0.12,-2.77,53.39,41.76,side
2023-10-02 01:27:59,0.0034,-0.9689,0.2673,0.85,-2.01,0.18,-2.53,53.22,40.71,side
2023-10-02 01:27:59,0.0049,-0.9688,0.269,0.98,-2.2,0.12,-2.87,53.63,41.98,side
2023-10-02 01:27:59,0.005,-0.9695,0.2673,0.85,-2.2,0.12,-2.7,53.56,41.87,side
2023-10-02 01:27:59,0.0038,-0.9695,0.2664,1.1,-2.2,0.24,-2.61,53.61,42.18,side
2023-10-02 01:27:59,0.0057,-0.9691,0.2692,0.98,-2.26,0.18,-2.87,53.34,41.61,side
2023-10-02 01:28:00,0.0043,-0.9691,0.2667,0.92,-2.08,0.31,-2.71,54.75,42.2,side
2023-10-02 01:28:00,0.004,-0.9702,0.2665,0.98,-2.08,0.24,-2.59,53.96,41.1,side
2023-10-02 01:28:00,0.0044,-0.9714,0.2662,0.85,-2.01,0.06,-2.06,53.93,41.93,side
2023-10-02 01:28:00,0.0051,-0.9696,0.2671,0.98,-2.14,0.12,-2.7,54.03,41.52,side
2023-10-02 01:28:00,0.0039,-0.9701,0.2661,0.92,-1.95,0.18,-2.88,54.21,42.14,side
2023-10-02 01:28:00,0.0042,-0.9686,0.2672,1.1,-2.01,0.12,-2.77,53.41,41.6,side
2023-10-02 01:28:00,0.0042,-0.969,0.2675,0.98,-2.08,0.24,-2.84,53.78,40.88,side
2023-10-02 01:28:00,0.0045,-0.969,0.2672,0.92,-2.01,0.12,-3.16,54.21,40.95,side
2023-10-02 01:28:00,0.0043,-0.9695,0.2664,1.1,-2.01,0.18,-3.1,53.42,41.42,side
2023-10-02 01:28:01,0.0042,-0.9689,0.2686,1.1,-2.01,0.12,-3.21,53.74,41.6,side
2023-10-02 01:28:01,0.0046,-0.9717,0.2678,0.92,-2.01,0.24,-3.09,54.19,42.19,side
2023-10-02 01:28:01,0.0039,-0.9683,0.2677,1.04,-2.01,0.31,-2.58,53.53,41.49,side
2023-10-02 01:28:01,0.0051,-0.9695,0.2667,0.92,-1.95,0.12,-2.53,53.32,41.26,side
2023-10-02 01:28:01,0.0045,-0.9685,0.2678,0.85,-2.01,0.06,-3.14,53.75,42.35,side
2023-10-02 01:28:01,0.0031,-0.9696,0.2668,0.98,-2.08,0.06,-2.99,54.08,42.27,side
2023-10-02 01:28:01,0.0043,-0.9692,0.2676,0.79,-1.77,0.24,-2.72,53.71,41.83,side
2023-10-02 01:28:01,0.0039,-0.9695,0.2682,0.73,-2.08,0.06,-2.33,53.43,42.1,side
2023-10-02 01:28:01,0.0051,-0.9695,0.2666,1.1,-2.01,0.12,-3.11,54.22,40.61,side
2023-10-02 01:28:02,0.0037,-0.9694,0.2678,0.85,-2.26,0.12,-2.58,53.05,41.77,side
2023-10-02 01:28:02,0.0038,-0.9697,0.2673,0.67,-2.01,0.18,-2.21,53.32,41.17,side
2023-10-02 01:28:02,0.0039,-0.9692,0.2671,0.92,-2.08,0.24,-3.19,54.1,41.65,side
2023-10-02 01:28:02,0.004,-0.9694,0.267,0.98,-1.89,0.12,-2.98,53.43,42.18,side
2023-10-02 01:28:02,0.004,-0.9683,0.2687,0.92,-2.14,0.12,-2.49,53.06,41.72,side
2023-10-02 01:28:02,0.0037,-0.969,0.2679,1.1,-2.08,0.24,-2.8,53.54,42.32,side
2023-10-02 01:28:02,0.0033,-0.9695,0.2667,1.04,-1.95,0.18,-3.37,53.74,40.26,side
2023-10-02 01:28:02,0.0046,-0.9686,0.2679,1.04,-2.01,0.31,-3.02,53.17,41.7,side
2023-10-02 01:28:02,0.0044,-0.9688,0.2672,0.92,-2.14,0.0,-2.66,53.23,41.0,side
2023-10-02 01:28:02,0.0039,-0.9696,0.2667,0.98,-2.01,0.06,-2.82,54.16,40.53,side
2023-10-02 01:28:03,0.0054,-0.9692,0.2661,0.92,-1.95,0.12,-2.98,53.21,41.54,side
2023-10-02 01:28:03,0.0039,-0.9694,0.2668,1.04,-2.08,0.0,-2.72,52.61,41.21,side
2023-10-02 01:28:03,0.0049,-0.9703,0.2657,1.22,-2.08,0.18,-2.95,53.58,42.02,side
2023-10-02 01:28:03,0.0035,-0.9694,0.2686,1.1,-2.01,0.12,-3.64,53.97,41.67,side
2023-10-02 01:28:03,0.0045,-0.9689,0.2671,1.04,-1.95,0.12,-2.42,53.39,41.7,side
2023-10-02 01:28:03,0.0048,-0.9705,0.2672,1.1,-1.95,0.12,-2.71,53.23,42.03,side
2023-10-02 01:28:03,0.0035,-0.9697,0.2661,1.16,-1.95,0.18,-3.08,53.88,41.7,side
2023-10-02 01:28:03,0.0052,-0.9692,0.2671,0.92,-2.08,0.18,-2.67,53.16,41.6,side
2023-10-02 01:28:03,0.0052,-0.9692,0.2671,0.85,-2.01,0.12,-2.76,54.24,41.14,side
2023-10-02 01:28:04,0.0037,-0.9694,0.2666,1.04,-2.08,0.31,-3.25,54.11,41.61,side
2023-10-02 01:28:04,0.0042,-0.97,0.2657,0.85,-2.08,0.24,-3.44,53.55,41.6,side
2023-10-02 01:28:04,0.0045,-0.9691,0.2659,0.79,-2.08,0.18,-2.54,52.89,41.21,side
2023-10-02 01:28:04,0.0044,-0.9692,0.2677,0.92,-2.08,0.12,-2.92,53.7,41.09,side
2023-10-02 01:28:04,0.0046,-0.969,0.2681,0.92,-1.95,0.24,-3.3,53.78,41.2,side
2023-10-02 01:28:04,0.0054,-0.9689,0.2683,1.04,-2.01,0.31,-2.61,53.43,41.16,side
2023-10-02 01:28:04,0.0049,-0.97,0.2661,1.04,-2.01,0.24,-3.44,53.66,41.42,side
2023-10-02 01:28:04,0.0035,-0.9701,0.2665,0.98,-2.08,0.12,-3.47,54.09,40.2,side
2023-10-02 01:28:04,0.0052,-0.9703,0.2668,1.1,-2.01,0.18,-3.26,53.12,41.61,side
2023-10-02 01:28:05,0.0042,-0.9695,0.2672,0.92,-2.01,0.24,-2.76,53.03,40.59,side
2023-10-02 01:28:05,0.0039,-0.9709,0.2668,0.85,-1.83,0.12,-2.89,53.94,42.19,side
2023-10-02 01:28:05,0.0042,-0.9698,0.2661,1.1,-2.08,0.24,-3.14,53.8,41.15,side
2023-10-02 01:28:05,0.0045,-0.9694,0.2675,0.98,-1.95,0.24,-2.54,53.33,42.27,side
2023-10-02 01:28:05,0.0044,-0.9698,0.2651,1.04,-2.01,0.12,-2.76,53.64,41.72,side
2023-10-02 01:28:05,0.0054,-0.9688,0.2664,0.98,-1.89,0.24,-3.44,53.94,40.78,side
2023-10-02 01:28:05,0.0034,-0.9705,0.2672,1.22,-2.2,0.24,-3.27,53.43,41.72,side
2023-10-02 01:28:05,0.005,-0.9691,0.2659,1.1,-1.95,0.31,-2.95,53.42,42.32,side
2023-10-02 01:28:05,0.0042,-0.9695,0.2656,1.1,-2.01,0.37,-2.75,53.66,40.75,side
2023-10-02 01:28:05,0.0037,-0.9689,0.2671,0.98,-2.08,0.12,-2.55,54.28,42.03,side
2023-10-02 01:28:06,0.0044,-0.97,0.266,0.85,-2.08,0.12,-2.76,52.81,42.19,side
2023-10-02 01:28:06,0.0038,-0.9683,0.2667,1.16,-2.08,0.24,-3.12,54.22,42.08,side
2023-10-02 01:28:06,0.0062,-0.9697,0.2661,1.16,-1.95,0.18,-3.39,53.92,41.72,side
2023-10-02 01:28:06,0.0046,-0.9696,0.2666,1.04,-2.08,0.18,-2.59,53.27,41.22,side
2023-10-02 01:28:06,0.0045,-0.9691,0.2642,1.16,-2.26,0.24,-2.99,53.48,41.14,side
2023-10-02 01:28:06,0.0059,-0.9685,0.267,0.67,-2.01,0.06,-3.49,54.83,41.69,side
2023-10-02 01:28:06,0.0052,-0.9688,0.2664,0.79,-1.89,0.06,-2.82,53.59,41.58,side
2023-10-02 01:28:06,0.0037,-0.9686,0.2643,0.73,-2.01,0.06,-2.7,52.62,41.16,side
2023-10-02 01:28:06,0.0039,-0.9697,0.2667,0.67,-2.14,0.12,-2.86,54.1,40.58,side
2023-10-02 01:28:07,0.0044,-0.9691,0.2653,0.85,-2.14,0.12,-3.0,54.1,41.49,side
2023-10-02 01:28:07,0.0043,-0.9696,0.265,0.85,-2.08,0.18,-2.54,53.28,41.37,side
2023-10-02 01:28:07,0.0038,-0.9691,0.2639,1.1,-2.01,0.31,-2.44,53.52,41.59,side
2023-10-02 01:28:07,0.0048,-0.9702,0.2659,1.1,-2.08,0.24,-2.77,53.76,40.28,side
2023-10-02 01:28:07,0.0048,-0.9691,0.2659,1.04,-2.14,0.0,-2.73,53.22,40.87,side
2023-10-02 01:28:07,0.004,-0.9695,0.2638,0.92,-2.14,0.12,-2.33,53.08,42.16,side
2023-10-02 01:28:07,0.0048,-0.9696,0.2666,1.04,-2.08,0.12,-3.0,53.77,41.93,side
2023-10-02 01:28:07,0.0032,-0.969,0.2651,1.04,-2.01,0.24,-2.6,53.82,42.21,side
2023-10-02 01:28:07,0.0045,-0.9698,0.2661,0.98,-2.08,0.24,-2.45,53.52,42.22,side
2023-10-02 01:28:08,0.0039,-0.9692,0.2639,1.1,-2.26,0.06,-3.16,54.08,40.69,side
2023-10-02 01:28:08,0.0033,-0.9705,0.2653,1.04,-1.89,0.06,-3.74,53.91,42.22,side
2023-10-02 01:28:08,0.0049,-0.9698,0.265,0.98,-2.14,0.24,-3.05,54.17,41.39,side
2023-10-02 01:28:08,0.0035,-0.9694,0.2645,1.04,-2.14,0.24,-2.12,53.5,41.98,side
2023-10-02 01:28:08,0.0045,-0.97,0.266,0.85,-1.95,0.12,-3.44,54.49,41.2,side
2023-10-02 01:28:08,0.0045,-0.97,0.2656,1.1,-2.2,0.31,-3.5,53.59,41.28,side
2023-10-02 01:28:08,0.0044,-0.9712,0.2657,1.04,-1.95,0.12,-3.06,53.77,42.32,side
2023-10-02 01:28:08,0.0048,-0.9688,0.2665,0.98,-2.01,0.12,-3.12,54.15,41.6,side
2023-10-02 01:28:08,0.0049,-0.9714,0.2648,1.04,-1.83,0.18,-2.66,54.32,41.75,side
2023-10-02 01:28:08,0.004,-0.969,0.2662,0.98,-1.89,0.18,-3.32,53.78,42.42,side
2023-10-02 01:28:09,0.0037,-0.9696,0.2655,1.1,-2.01,0.12,-3.16,54.03,42.03,side
2023-10-02 01:28:09,0.0054,-0.969,0.2653,0.98,-2.08,0.24,-3.64,54.0,42.43,side
2023-10-02 01:28:09,0.0037,-0.9696,0.2653,1.04,-2.14,0.06,-3.06,53.69,41.59,side
2023-10-02 01:28:09,0.0038,-0.9696,0.265,0.85,-2.08,0.12,-3.11,53.7,42.38,side
2023-10-02 01:28:09,0.0048,-0.9694,0.2654,0.73,-1.95,0.12,-3.31,54.17,42.11,side
2023-10-02 01:28:09,0.0034,-0.9701,0.2661,0.73,-2.2,0.18,-3.23,54.14,42.38,side
2023-10-02 01:28:09,0.0034,-0.9706,0.2653,0.92,-2.14,0.12,-3.0,53.48,41.85,side
2023-10-02 01:28:09,0.0042,-0.97,0.2645,0.92,-2.26,0.18,-3.14,54.15,41.49,side
2023-10-02 01:28:09,0.0049,-0.9698,0.2661,0.98,-2.08,0.18,-3.23,54.28,41.58,side
2023-10-02 01:28:10,0.0045,-0.9689,0.2668,0.92,-2.14,0.12,-2.72,53.16,42.57,side
2023-10-02 01:28:10,0.004,-0.9694,0.265,0.92,-1.89,0.24,-2.88,53.21,42.14,side
2023-10-02 01:28:10,0.005,-0.9702,0.2648,0.98,-2.08,0.12,-3.56,54.0,41.96,side
2023-10-02 01:28:10,0.005,-0.9686,0.2664,0.98,-1.95,0.12,-2.8,53.22,40.69,side
2023-10-02 01:28:10,0.0052,-0.9703,0.2643,0.98,-2.14,0.18,-2.7,53.27,41.75,side
2023-10-02 01:28:10,0.0037,-0.9694,0.2662,1.04,-1.95,0.37,-3.23,54.03,41.5,side
2023-10-02 01:28:10,0.0039,-0.9695,0.2639,1.04,-2.01,0.12,-3.48,54.14,41.3,side
2023-10-02 01:28:10,0.0049,-0.9697,0.265,0.85,-2.08,0.18,-2.56,53.5,42.11,side
2023-10-02 01:28:10,0.0045,-0.9696,0.2644,0.79,-2.08,0.06,-3.11,53.71,42.14,side
2023-10-02 01:28:11,0.0049,-0.9697,0.2644,1.1,-2.08,0.12,-3.47,54.33,40.97,side
2023-10-02 01:28:11,0.0071,-0.9681,0.2666,0.85,-2.14,0.24,-3.16,52.82,42.15,side
2023-10-02 01:28:11,0.0017,-0.9722,0.2615,0.85,-2.01,0.24,-2.92,53.63,41.46,side
2023-10-02 01:28:11,0.0095,-0.957,0.283,0.55,-2.01,0.43,-2.94,54.19,40.97,side
2023-10-02 01:28:11,0.0042,-0.976,0.2494,1.95,-1.89,-0.49,-3.38,53.54,41.64,side
2023-10-02 01:28:11,0.0083,-0.9788,0.2548,-0.31,-2.08,0.43,-2.64,53.33,42.14,side
2023-10-02 01:28:11,0.0045,-0.9684,0.2687,0.92,-1.71,-0.43,-3.21,53.92,41.56,side
2023-10-02 01:28:11,-0.0004,-0.9735,0.252,1.28,-2.14,0.24,-3.49,54.11,42.36,side
2023-10-02 01:28:11,0.0022,-0.9668,0.2726,1.04,-1.89,0.18,-3.37,53.31,42.15,side
2023-10-02 01:28:11,0.0045,-0.9703,0.2551,0.98,-2.14,-0.06,-3.12,53.49,41.08,side
2023-10-02 01:28:12,0.0052,-0.9659,0.2726,0.79,-2.08,0.18,-2.93,53.91,41.71,side
2023-10-02 01:28:12,0.0056,-0.9697,0.2644,1.04,-2.14,-0.06,-2.66,54.04,42.0,side
2023-10-02 01:28:12,0.0033,-0.9691,0.2673,0.92,-2.14,0.18,-2.6,53.25,42.29,side
2023-10-02 01:28:12,0.0049,-0.9684,0.2656,0.98,-2.01,0.24,-3.05,53.86,41.28,side
2023-10-02 01:28:12,0.0032,-0.9698,0.2616,1.1,-2.14,0.31,-3.04,54.14,41.64,side
2023-10-02 01:28:12,0.0129,-0.9675,0.2633,1.04,-1.95,0.18,-2.4,53.0,42.09,side
2023-10-02 01:28:12,-0.0013,-0.9741,0.2595,0.92,-2.08,0.12,-2.92,53.89,42.02,side
2023-10-02 01:28:12,0.0055,-0.9697,0.2681,0.85,-2.2,0.24,-2.66,53.83,42.19,side
2023-10-02 01:28:12,-0.0002,-0.9711,0.2675,1.1,-1.83,0.18,-2.88,53.33,42.18,side
2023-10-02 01:28:13,0.0039,-0.9698,0.2697,0.98,-2.2,0.18,-2.36,53.32,42.59,side
2023-10-02 01:28:13,0.0089,-0.9691,0.2683,0.98,-2.01,0.31,-2.97,54.25,40.93,side
2023-10-02 01:28:13,0.0038,-0.9701,0.2672,1.04,-2.2,0.24,-2.84,53.86,41.56,side
2023-10-02 01:28:13,0.0042,-0.9695,0.2665,1.04,-2.14,0.24,-2.59,53.61,41.25,side
2023-10-02 01:28:13,0.0052,-0.9713,0.2609,1.04,-2.01,0.06,-2.81,53.91,41.03,side
2023-10-02 01:28:13,0.0044,-0.969,0.265,1.1,-2.26,0.12,-3.3,54.53,42.1,side
2023-10-02 01:28:13,0.0038,-0.9692,0.2656,0.85,-2.14,0.12,-2.99,53.67,42.36,side
2023-10-02 01:28:13,0.004,-0.9688,0.2677,1.04,-2.08,0.06,-2.94,53.98,41.71,side
2023-10-02 01:28:13,0.0051,-0.9702,0.2645,1.04,-2.08,0.31,-3.06,54.2,41.44,side
2023-10-02 01:28:14,0.0051,-0.9683,0.2654,0.92,-2.2,0.06,-3.03,53.91,41.63,side
2023-10-02 01:28:14,0.006,-0.9691,0.2659,0.79,-2.26,0.12,-2.7,53.89,41.56,side
2023-10-02 01:28:14,0.0044,-0.9691,0.2666,0.92,-2.08,0.31,-2.91,54.2,40.81,side
2023-10-02 01:28:14,0.0051,-0.9703,0.2666,0.85,-2.2,0.18,-3.31,54.03,41.98,side
2023-10-02 01:28:14,0.0049,-0.9706,0.2639,0.79,-1.95,0.18,-2.93,53.76,42.65,side
2023-10-02 01:28:14,0.0052,-0.9692,0.2664,1.1,-2.2,0.24,-3.11,54.37,41.16,side
2023-10-02 01:28:14,0.0039,-0.97,0.2655,0.92,-2.14,0.18,-3.08,54.46,40.36,side
2023-10-02 01:28:14,0.0042,-0.969,0.2675,0.98,-2.14,0.0,-2.97,53.86,41.05,side
2023-10-02 01:28:14,0.004,-0.9692,0.2659,1.04,-2.14,0.06,-2.89,54.14,41.48,side
2023-10-02 01:28:14,0.0049,-0.969,0.2664,0.79,-1.95,0.06,-3.27,54.58,42.19,side
2023-10-02 01:28:15,0.0054,-0.9691,0.266,1.04,-1.77,0.12,-3.03,54.22,41.96,side
2023-10-02 01:28:15,0.0055,-0.9695,0.266,1.1,-1.95,0.24,-2.8,53.74,41.06,side
2023-10-02 01:28:15,0.0045,-0.9698,0.2662,1.04,-1.89,0.18,-3.1,54.31,41.85,side
2023-10-02 01:28:15,0.004,-0.9692,0.2675,0.98,-1.95,0.37,-3.53,54.83,42.19,side
2023-10-02 01:28:15,0.0044,-0.9686,0.2681,1.04,-1.95,0.18,-2.31,53.87,41.96,side
2023-10-02 01:28:15,0.0045,-0.969,0.2659,0.98,-2.08,0.18,-3.25,54.47,42.91,side
2023-10-02 01:28:15,0.0043,-0.9695,0.2676,1.16,-2.01,0.18,-3.15,54.64,42.03,side
2023-10-02 01:28:15,0.0048,-0.9696,0.2671,1.34,-1.95,0.31,-3.59,54.17,41.55,side
2023-10-02 01:28:15,0.004,-0.9695,0.2678,1.1,-2.01,0.31,-2.89,53.85,41.39,side
2023-10-02 01:28:16,0.0054,-0.97,0.2662,0.92,-1.95,0.18,-2.38,54.06,40.76,side
2023-10-02 01:28:16,0.0045,-0.9709,0.2668,1.1,-2.14,0.06,-2.55,53.33,42.43,side
2023-10-02 01:28:16,0.0046,-0.9694,0.2665,1.16,-2.01,0.24,-2.5,53.53,42.47,side
2023-10-02 01:28:16,0.004,-0.9705,0.2661,0.85,-2.14,0.31,-2.99,54.28,41.94,side
2023-10-02 01:28:16,0.0042,-0.9686,0.2662,1.16,-2.01,0.06,-2.93,54.31,42.74,side
2023-10-02 01:28:16,0.0048,-0.9692,0.267,1.04,-2.14,0.12,-2.44,53.54,41.3,side
2023-10-02 01:28:16,0.0042,-0.9695,0.2667,1.16,-2.01,0.24,-2.69,53.47,42.21,side
2023-10-02 01:28:16,0.0059,-0.969,0.266,0.92,-2.26,0.06,-3.21,54.53,42.02,side
2023-10-02 01:28:16,0.0048,-0.9698,0.2666,0.92,-2.08,0.18,-2.93,54.03,42.57,side
2023-10-02 01:28:17,0.0042,-0.97,0.2662,0.92,-1.89,0.24,-3.0,52.99,42.31,side
2023-10-02 01:28:17,0.0048,-0.9698,0.2667,0.85,-2.01,0.18,-3.15,53.93,41.17,side
2023-10-02 01:28:17,0.0039,-0.9696,0.2662,1.04,-2.01,0.18,-3.7,53.78,42.0,side
2023-10-02 01:28:17,0.0056,-0.9695,0.2675,1.04,-2.08,0.31,-2.34,53.97,42.49,side
2023-10-02 01:28:17,0.0051,-0.9686,0.2659,0.92,-1.95,0.18,-2.58,53.86,41.6,side
2023-10-02 01:28:17,0.0044,-0.9689,0.2662,1.16,-1.89,0.18,-3.44,54.06,42.53,side
2023-10-02 01:28:17,0.004,-0.9688,0.2659,1.1,-2.08,0.12,-3.31,53.42,41.42,side
2023-10-02 01:28:17,0.0046,-0.9688,0.2664,0.98,-1.95,0.24,-2.54,53.14,41.93,side
2023-10-02 01:28:17,0.0048,-0.9697,0.267,1.1,-1.95,0.18,-3.49,53.69,42.86,side
2023-10-02 01:28:17,0.0043,-0.9692,0.2664,1.1,-2.08,0.18,-3.3,54.24,42.71,side
2023-10-02 01:28:18,0.0048,-0.9697,0.2662,1.1,-1.95,0.31,-2.71,53.41,42.25,side
2023-10-02 01:28:18,0.0037,-0.9692,0.2664,1.16,-1.95,0.37,-2.99,53.27,42.65,side
2023-10-02 01:28:18,0.0054,-0.9692,0.2653,1.1,-1.95,0.24,-3.38,54.03,41.87,side
2023-10-02 01:28:18,0.005,-0.9701,0.2664,0.98,-2.14,0.18,-2.87,53.75,41.76,side
2023-10-02 01:28:18,0.0055,-0.9696,0.267,0.98,-2.01,0.12,-2.77,53.15,41.56,side
2023-10-02 01:28:18,0.0049,-0.9384,0.2665,1.04,-2.14,0.18,-3.04,54.09,42.11,side
2023-10-02 01:28:18,0.0048,-0.9689,0.2666,1.1,-1.83,0.31,-2.87,52.78,42.94,side
2023-10-02 01:28:18,0.0067,-0.9697,0.2659,1.1,-1.89,0.24,-2.81,53.88,41.52,side
2023-10-02 01:28:18,0.0039,-0.9689,0.2657,1.22,-2.01,0.24,-3.15,54.22,42.64,side
2023-10-02 01:28:19,0.0054,-0.9702,0.2656,1.1,-1.95,0.24,-3.65,54.3,41.76,side
2023-10-02 01:28:19,0.0045,-0.969,0.2664,1.04,-2.08,0.12,-2.58,53.27,41.86,side
2023-10-02 01:28:19,0.0042,-0.9689,0.2666,1.1,-2.2,0.0,-3.19,54.05,41.92,side
2023-10-02 01:28:19,0.0049,-0.9698,0.2668,0.92,-2.32,0.12,-3.03,54.47,41.69,side
2023-10-02 01:28:19,0.0043,-0.97,0.2666,0.98,-2.08,0.24,-3.25,53.22,42.05,side
2023-10-02 01:28:19,0.0051,-0.9692,0.2666,1.04,-2.14,0.06,-2.65,53.66,42.8,side
2023-10-02 01:28:19,0.005,-0.9692,0.2664,0.92,-2.08,0.12,-3.04,54.46,42.61,side
2023-10-02 01:28:19,0.0045,-0.9698,0.2656,0.98,-2.2,0.18,-3.52,54.06,41.87,side
2023-10-02 01:28:19,0.0038,-0.9697,0.2664,0.85,-2.01,0.24,-2.76,53.59,42.13,side
2023-10-02 01:28:20,0.0043,-0.9694,0.2655,0.98,-1.95,0.18,-3.0,53.7,42.05,side
2023-10-02 01:28:20,0.0045,-0.9694,0.2654,1.04,-1.95,0.12,-3.41,54.42,41.31,side
2023-10-02 01:28:20,0.0049,-0.9696,0.266,1.04,-2.01,0.12,-2.94,53.43,42.9,side
2023-10-02 01:28:20,0.0048,-0.9698,0.266,0.98,-2.01,0.12,-2.65,53.31,40.91,side
2023-10-02 01:28:20,0.0045,-0.9691,0.2668,1.1,-2.01,0.18,-3.31,54.6,42.15,side
2023-10-02 01:28:20,0.0057,-0.9697,0.2671,1.04,-2.01,0.06,-3.08,54.0,42.37,side
2023-10-02 01:28:20,0.0049,-0.9692,0.2673,0.92,-1.95,0.31,-2.98,53.74,42.29,side
2023-10-02 01:28:20,0.0048,-0.9697,0.2665,0.98,-2.01,0.31,-3.23,54.47,42.42,side
2023-10-02 01:28:20,0.0046,-0.9695,0.2668,1.1,-2.14,0.24,-2.88,55.18,41.98,side
2023-10-02 01:28:20,0.005,-0.9694,0.2664,1.16,-2.08,0.18,-2.73,54.0,42.49,side
2023-10-02 01:28:21,0.0052,-0.9688,0.267,0.85,-2.01,0.18,-2.76,53.85,42.3,side
2023-10-02 01:28:21,0.004,-0.9708,0.2673,0.98,-1.89,0.18,-2.98,54.63,43.7,side
2023-10-02 01:28:21,0.0046,-0.9686,0.2677,0.98,-2.01,0.18,-2.84,53.72,42.71,side
2023-10-02 01:28:21,0.0037,-0.97,0.267,1.1,-2.08,0.0,-2.27,53.7,42.92,side
2023-10-02 01:28:21,0.0054,-0.9697,0.2683,1.16,-2.01,0.24,-2.67,54.04,41.86,side
2023-10-02 01:28:21,0.004,-0.9692,0.2667,0.85,-2.08,0.18,-3.16,53.89,42.07,side
2023-10-02 01:28:21,0.0043,-0.97,0.2662,0.98,-1.95,0.18,-2.89,53.82,42.08,side
2023-10-02 01:28:21,0.0052,-0.9698,0.2671,0.79,-2.01,0.18,-3.32,54.66,42.05,side
2023-10-02 01:28:21,0.0055,-0.9694,0.2672,0.85,-1.95,0.18,-3.28,55.21,41.47,side
2023-10-02 01:28:22,0.0039,-0.9696,0.2668,1.04,-1.89,0.12,-2.8,53.58,42.81,side
2023-10-02 01:28:22,0.0055,-0.9695,0.2676,0.85,-1.89,0.24,-3.02,53.67,43.07,side
2023-10-02 01:28:22,0.0055,-0.9691,0.2672,0.92,-1.89,0.31,-3.72,54.82,42.14,side
2023-10-02 01:28:22,0.0032,-0.9697,0.267,0.98,-2.01,0.24,-2.77,53.85,41.74,side
2023-10-02 01:28:22,0.004,-0.9691,0.2671,0.85,-2.01,0.24,-3.08,53.63,42.91,side
2023-10-02 01:28:22,-0.0012,-0.9656,0.2695,0.85,-1.77,0.73,-2.87,53.72,42.24,side
2023-10-02 01:28:22,0.005,-0.972,0.2715,1.04,-2.01,0.31,-3.09,54.44,41.91,side
2023-10-02 01:28:22,0.001,-0.9707,0.2693,1.1,-1.95,0.24,-3.22,53.7,41.83,side
2023-10-02 01:28:22,0.0017,-0.9746,0.2751,0.85,-2.14,0.0,-2.62,53.32,42.05,side
2023-10-02 01:28:22,0.0022,-0.9719,0.266,0.85,-1.89,0.12,-2.91,54.59,41.64,side
2023-10-02 01:28:23,0.0098,-0.9669,0.2694,0.98,-1.95,0.43,-2.72,54.14,41.21,side
2023-10-02 01:28:23,0.0042,-0.9695,0.2627,0.98,-2.01,0.18,-2.5,53.2,42.19,side
2023-10-02 01:28:23,0.0054,-0.9694,0.2654,0.98,-1.95,0.18,-2.61,53.61,41.56,side
2023-10-02 01:28:23,0.0056,-0.9691,0.267,1.1,-2.01,0.12,-2.81,54.11,41.65,side
2023-10-02 01:28:23,0.0042,-0.97,0.2653,1.04,-1.95,0.31,-2.49,54.26,42.32,side
2023-10-02 01:28:23,0.0048,-0.9688,0.2701,0.85,-2.01,0.24,-2.98,54.61,43.18,side
2023-10-02 01:28:23,0.0037,-0.97,0.2662,0.85,-1.95,0.12,-2.77,54.15,42.66,side
2023-10-02 01:28:23,0.006,-0.97,0.2694,0.85,-1.95,0.18,-2.84,53.49,41.19,side
2023-10-02 01:28:23,0.0039,-0.9701,0.2653,0.98,-1.95,0.06,-3.04,54.21,41.5,side
2023-10-02 01:28:24,0.0061,-0.9695,0.2664,1.1,-2.08,0.24,-3.52,54.22,42.91,side
2023-10-02 01:28:24,0.0038,-0.9696,0.265,0.79,-1.95,0.18,-3.06,54.17,42.6,side
2023-10-02 01:28:24,0.0052,-0.9691,0.2688,0.67,-2.08,0.12,-3.0,53.54,42.5,side
2023-10-02 01:28:24,0.005,-0.9697,0.2662,0.98,-2.14,0.31,-2.88,54.38,41.64,side
2023-10-02 01:28:24,0.005,-0.9698,0.267,0.79,-1.89,0.18,-3.39,54.06,42.22,side
2023-10-02 01:28:24,0.0026,-0.9689,0.2682,0.92,-1.83,0.24,-3.02,53.59,42.36,side
2023-10-02 01:28:24,0.005,-0.9636,0.2657,0.79,-2.01,0.31,-2.93,53.98,41.13,side
2023-10-02 01:28:24,0.0052,-0.9667,0.2764,0.98,-2.2,0.49,-3.06,54.32,42.24,side
2023-10-02 01:28:24,0.0042,-0.9709,0.2662,0.98,-2.08,0.0,-2.89,53.92,42.07,side
2023-10-02 01:28:25,0.0052,-0.9679,0.2686,0.92,-2.14,0.18,-2.29,53.21,42.69,side
2023-10-02 01:28:25,0.0056,-0.9691,0.2664,0.98,-1.95,0.24,-2.87,54.22,42.6,side
2023-10-02 01:28:25,0.0038,-0.9702,0.2644,0.98,-2.08,0.18,-2.95,53.72,42.19,side
2023-10-02 01:28:25,0.0056,-0.969,0.267,0.92,-2.01,0.12,-2.61,53.41,42.65,side
2023-10-02 01:28:25,0.0046,-0.9698,0.2637,0.98,-2.08,0.24,-3.39,53.55,41.35,side
2023-10-02 01:28:25,0.0037,-0.9694,0.2665,1.1,-1.95,0.12,-2.53,53.86,41.42,side
2023-10-02 01:28:25,0.0048,-0.969,0.2656,0.79,-2.08,0.24,-2.94,53.69,42.47,side
2023-10-02 01:28:25,0.0034,-0.9691,0.267,0.98,-1.95,0.06,-2.17,53.15,41.8,side
2023-10-02 01:28:25,0.0045,-0.9705,0.2643,0.92,-2.01,0.18,-3.45,54.22,42.32,side
2023-10-02 01:28:25,0.0052,-0.9697,0.2667,1.04,-1.95,0.18,-2.82,54.03,42.07,side
2023-10-02 01:28:26,0.0048,-0.9703,0.2643,1.16,-1.95,0.24,-2.03,53.28,41.89,side
2023-10-02 01:28:26,0.0046,-0.9709,0.265,0.85,-2.14,0.18,-2.98,53.96,41.99,side
2023-10-02 01:28:26,0.0055,-0.9692,0.2646,0.92,-1.95,0.31,-3.05,54.09,42.52,side
2023-10-02 01:28:26,0.0034,-0.9686,0.2649,1.04,-2.01,0.18,-3.11,53.27,42.58,side
2023-10-02 01:28:26,0.0049,-0.9691,0.2645,1.04,-2.14,0.12,-2.69,53.78,42.15,side
2023-10-02 01:28:26,0.0039,-0.9685,0.2642,0.85,-2.14,0.12,-3.16,54.59,42.09,side
2023-10-02 01:28:26,0.0052,-0.9694,0.2634,0.92,-1.95,0.12,-2.71,53.77,41.7,side
2023-10-02 01:28:26,0.0046,-0.9698,0.2657,0.73,-1.77,0.24,-2.6,53.42,42.14,side
2023-10-02 01:28:26,0.0046,-0.9709,0.2651,0.85,-1.89,0.12,-2.81,54.21,41.88,side
2023-10-02 01:28:27,0.0043,-0.9701,0.2639,0.98,-2.26,0.12,-2.83,53.67,42.81,side
2023-10-02 01:28:27,0.0039,-0.9691,0.2656,0.73,-2.2,0.18,-2.25,53.66,41.93,side
2023-10-02 01:28:27,0.004,-0.9703,0.2656,0.92,-1.95,0.12,-2.81,53.94,42.46,side
2023-10-02 01:28:27,0.0052,-0.9695,0.2655,1.1,-2.01,0.43,-2.88,54.63,42.02,side
2023-10-02 01:28:27,0.0039,-0.9701,0.2643,1.16,-2.08,0.24,-2.7,53.7,42.74,side
2023-10-02 01:28:27,0.004,-0.9689,0.2655,0.98,-2.14,0.31,-1.6,53.58,42.75,side
2023-10-02 01:28:27,0.0048,-0.9692,0.2656,0.92,-2.01,0.18,-3.36,54.22,42.15,side
2023-10-02 01:28:27,0.004,-0.9694,0.2671,1.16,-2.01,0.24,-3.28,54.46,42.66,side
2023-10-02 01:28:27,0.0032,-0.9701,0.2639,0.98,-2.01,0.12,-2.98,53.83,41.92,side
2023-10-02 01:28:28,0.0049,-0.9691,0.2659,1.04,-2.01,0.24,-3.1,53.86,42.25,side
2023-10-02 01:28:28,0.0044,-0.9702,0.2656,1.04,-2.14,0.24,-2.93,54.04,41.87,side
2023-10-02 01:28:28,0.0048,-0.9691,0.2655,0.98,-2.01,0.37,-2.64,53.6,41.59,side
2023-10-02 01:28:28,0.0046,-0.9709,0.2642,1.1,-2.2,0.24,-2.2,53.37,42.88,side
2023-10-02 01:28:28,0.0039,-0.97,0.2642,0.85,-2.08,0.37,-2.77,53.93,42.76,side
2023-10-02 01:28:28,0.0049,-0.9695,0.266,1.04,-2.08,0.12,-2.91,53.74,41.91,side
2023-10-02 01:28:28,0.0031,-0.9709,0.2648,0.98,-2.14,0.18,-2.69,53.69,43.75,side
2023-10-02 01:28:28,0.0056,-0.969,0.264,1.04,-2.14,0.18,-2.97,54.46,43.93,side
2023-10-02 01:28:28,0.0029,-0.9714,0.265,0.98,-2.08,0.18,-3.21,53.96,43.43,side
2023-10-02 01:28:28,0.0044,-0.9692,0.2643,0.85,-2.01,0.12,-2.94,53.86,42.76,side
2023-10-02 01:28:29,0.0039,-0.9698,0.2659,0.85,-2.08,0.31,-2.69,54.32,42.53,side
2023-10-02 01:28:29,0.0044,-0.9696,0.2654,0.85,-2.08,0.12,-3.31,55.03,42.18,side
2023-10-02 01:28:29,0.004,-0.97,0.2637,0.85,-2.2,0.06,-2.33,53.87,42.83,side
2023-10-02 01:28:29,0.0059,-0.9697,0.2657,0.92,-2.14,0.24,-2.62,53.66,43.1,side
2023-10-02 01:28:29,0.0046,-0.9711,0.2639,0.79,-2.14,0.24,-3.09,54.33,43.55,side
2023-10-02 01:28:29,0.0052,-0.9691,0.2649,0.67,-2.2,0.18,-3.04,54.22,42.15,side
2023-10-02 01:28:29,0.0057,-0.9706,0.2648,1.1,-2.26,0.12,-2.23,53.47,42.48,side
2023-10-02 01:28:29,0.0051,-0.97,0.2644,1.04,-2.32,0.24,-2.93,54.14,42.07,side
2023-10-02 01:28:29,0.0046,-0.9694,0.2649,0.85,-2.2,0.18,-3.34,54.38,41.61,side
2023-10-02 01:28:30,0.0042,-0.9686,0.2633,1.04,-2.26,0.24,-2.51,53.71,42.32,side
2023-10-02 01:28:30,0.0057,-0.9691,0.2646,1.04,-2.2,0.31,-3.02,53.53,41.69,side
2023-10-02 01:28:30,0.0032,-0.9697,0.265,1.04,-2.08,0.31,-3.28,54.46,42.55,side
2023-10-02 01:28:30,0.0048,-0.9695,0.2656,0.79,-2.01,0.24,-3.53,53.65,43.23,side
2023-10-02 01:28:30,0.0033,-0.9705,0.266,1.04,-2.01,0.18,-3.02,54.17,42.44,side
2023-10-02 01:28:30,0.0043,-0.9695,0.2645,0.85,-2.2,0.12,-2.86,54.19,41.53,side
2023-10-02 01:28:30,0.0049,-0.9689,0.2646,0.85,-2.14,0.24,-2.94,54.94,41.98,side
2023-10-02 01:28:30,0.0042,-0.9698,0.2649,0.98,-2.14,0.24,-2.51,53.81,42.42,side
2023-10-02 01:28:30,0.0049,-0.9695,0.2642,0.98,-2.26,0.06,-2.91,53.82,41.98,side
2023-10-02 01:28:31,0.0048,-0.9695,0.2654,0.92,-2.08,0.12,-2.99,54.43,41.27,side
2023-10-02 01:28:31,0.0045,-0.9696,0.2649,0.92,-2.08,0.18,-2.81,53.92,42.53,side
2023-10-02 01:28:31,0.004,-0.9707,0.2637,0.98,-2.08,0.06,-3.02,53.54,42.93,side
2023-10-02 01:28:31,0.0071,-0.9696,0.264,0.85,-2.01,0.12,-3.22,54.41,41.54,side
2023-10-02 01:28:31,0.0039,-0.9703,0.2654,0.98,-2.2,0.12,-2.66,54.17,41.75,side
2023-10-02 01:28:31,0.0043,-0.9702,0.2664,1.1,-2.14,0.24,-2.71,53.27,42.3,side
2023-10-02 01:28:31,0.0043,-0.9713,0.2632,0.79,-2.14,0.06,-3.26,54.5,41.49,side
2023-10-02 01:28:31,0.0042,-0.969,0.2661,0.92,-2.01,0.18,-3.14,53.86,40.44,side
2023-10-02 01:28:31,0.0038,-0.97,0.2672,0.85,-2.14,0.18,-2.88,54.39,41.25,side
2023-10-02 01:28:31,0.0044,-0.9701,0.2654,0.85,-2.14,0.24,-3.11,54.08,42.05,side
2023-10-02 01:28:32,0.0042,-0.9694,0.2657,0.98,-2.08,0.12,-3.06,54.13,42.42,side
2023-10-02 01:28:32,0.004,-0.9688,0.2666,0.98,-2.01,0.24,-3.45,53.66,42.61,side
2023-10-02 01:28:32,0.0042,-0.9702,0.2645,0.98,-2.2,0.18,-2.66,53.34,40.83,side
2023-10-02 01:28:32,0.0043,-0.97,0.2665,1.04,-2.01,0.24,-2.61,54.02,41.78,side
2023-10-02 01:28:32,0.0043,-0.9697,0.2644,0.92,-2.08,0.24,-3.55,54.71,42.02,side
2023-10-02 01:28:32,0.0039,-0.9695,0.2665,1.1,-2.01,0.31,-2.32,53.47,42.82,side
2023-10-02 01:28:32,0.0046,-0.969,0.2646,0.92,-2.14,0.12,-2.87,53.65,41.41,side
2023-10-02 01:28:32,0.0038,-0.97,0.2635,0.85,-1.95,0.31,-3.15,54.71,41.66,side
2023-10-02 01:28:32,0.0046,-0.9698,0.2666,0.85,-2.01,0.37,-2.08,53.86,42.18,side
2023-10-02 01:28:33,0.005,-0.9702,0.2626,0.98,-2.08,0.24,-2.5,53.03,43.14,side
2023-10-02 01:28:33,0.0048,-0.969,0.2627,0.92,-2.2,0.31,-3.25,54.33,43.08,side
2023-10-02 01:28:33,0.0028,-0.9708,0.2637,0.98,-2.14,0.31,-2.72,54.21,42.5,side
2023-10-02 01:28:33,0.0046,-0.9692,0.2656,0.98,-2.01,0.31,-2.69,53.85,42.61,side
2023-10-02 01:28:33,0.0033,-0.9706,0.2648,0.98,-2.01,0.18,-3.2,54.42,41.14,side
2023-10-02 01:28:33,0.0049,-0.9691,0.2643,0.98,-2.08,0.24,-3.31,54.66,42.35,side
2023-10-02 01:28:33,0.0038,-0.9703,0.2633,1.1,-2.08,0.18,-2.51,54.08,41.65,side
2023-10-02 01:28:33,0.0038,-0.9689,0.2653,0.92,-2.08,0.24,-2.61,54.65,42.18,side
2023-10-02 01:28:33,0.0038,-0.97,0.2633,0.98,-2.08,0.06,-2.86,54.31,42.36,side
2023-10-02 01:28:34,0.0051,-0.9691,0.2639,0.92,-1.95,0.24,-2.77,53.74,42.3,side
2023-10-02 01:28:34,0.0039,-0.9697,0.2633,0.92,-2.14,0.18,-2.12,53.59,42.88,side
2023-10-02 01:28:34,0.004,-0.9696,0.265,0.85,-1.95,0.24,-2.83,54.41,42.55,side
2023-10-02 01:28:34,0.0044,-0.9702,0.2632,0.85,-1.95,0.31,-3.42,53.89,41.6,side
2023-10-02 01:28:34,0.004,-0.9689,0.2643,0.85,-1.89,0.18,-2.64,53.96,42.24,side
2023-10-02 01:28:34,0.0045,-0.97,0.2633,0.98,-2.01,0.18,-3.09,54.06,42.3,side
2023-10-02 01:28:34,0.0045,-0.9696,0.2645,0.73,-1.95,0.24,-3.52,54.7,41.81,side
2023-10-02 01:28:34,0.0038,-0.9694,0.2633,0.98,-2.08,0.06,-3.06,53.74,41.83,side
2023-10-02 01:28:34,0.0045,-0.9691,0.2654,0.79,-1.83,0.18,-2.93,53.85,41.97,side
2023-10-02 01:28:34,0.0043,-0.9695,0.2635,0.92,-1.95,0.24,-2.83,54.26,41.85,side
2023-10-02 01:28:35,0.0045,-0.9703,0.2635,1.1,-2.01,0.24,-2.59,54.42,41.81,side
2023-10-02 01:28:35,0.0051,-0.9692,0.2634,0.92,-1.95,0.24,-2.32,54.2,42.49,side
2023-10-02 01:28:35,0.0046,-0.97,0.2648,1.1,-2.08,0.12,-2.62,53.52,42.26,side
2023-10-02 01:28:35,0.0037,-0.9694,0.265,1.16,-1.95,0.12,-3.15,55.02,42.03,side
2023-10-02 01:28:35,0.0038,-0.9701,0.2633,0.92,-2.01,0.12,-3.19,53.98,40.91,side
2023-10-02 01:28:35,0.0045,-0.9694,0.2644,0.79,-2.01,0.18,-2.89,54.06,42.02,side
2023-10-02 01:28:35,0.0046,-0.9697,0.2639,0.92,-2.2,0.18,-3.59,54.49,40.91,side
2023-10-02 01:28:35,0.0038,-0.97,0.2649,1.04,-2.08,0.24,-3.41,54.7,42.48,side
2023-10-02 01:28:35,0.0044,-0.97,0.2633,0.98,-2.08,0.24,-2.81,53.66,42.19,side
2023-10-02 01:28:36,0.0056,-0.97,0.2651,1.04,-2.01,0.37,-2.93,54.35,41.82,side
2023-10-02 01:28:36,0.0031,-0.9719,0.2651,1.16,-2.01,0.24,-3.06,53.87,42.31,side
2023-10-02 01:28:36,0.0045,-0.9686,0.2649,0.98,-2.01,0.18,-2.86,53.2,41.81,side
2023-10-02 01:28:36,0.0045,-0.9718,0.2649,0.98,-2.01,0.18,-2.87,54.17,42.52,side
2023-10-02 01:28:36,0.0042,-0.9689,0.2651,0.98,-1.83,0.06,-2.83,53.61,41.64,side
2023-10-02 01:28:36,0.0035,-0.9696,0.2637,0.98,-2.01,0.12,-2.45,53.96,42.19,side
2023-10-02 01:28:36,0.0045,-0.9706,0.2659,0.98,-2.01,0.37,-2.88,54.25,42.21,side
2023-10-02 01:28:36,0.004,-0.9696,0.265,1.22,-1.95,0.24,-3.11,54.55,42.35,side
2023-10-02 01:28:36,0.0052,-0.9696,0.2657,0.85,-2.01,0.24,-2.59,54.42,41.72,side
2023-10-02 01:28:37,0.0043,-0.9696,0.2633,0.85,-1.95,0.31,-2.62,53.91,42.22,side
2023-10-02 01:28:37,0.004,-0.9695,0.2646,0.85,-2.14,0.06,-3.34,54.69,41.09,side
2023-10-02 01:28:37,0.0044,-0.9698,0.2631,1.1,-2.01,0.24,-3.48,54.08,42.13,side
2023-10-02 01:28:37,0.0056,-0.9695,0.2649,0.85,-2.01,0.12,-2.62,53.98,42.07,side
2023-10-02 01:28:37,0.0048,-0.9706,0.2618,0.79,-2.01,0.24,-2.78,53.97,42.71,side
2023-10-02 01:28:37,0.0035,-0.9696,0.2659,1.04,-1.95,0.31,-3.02,53.98,42.3,side
2023-10-02 01:28:37,0.004,-0.97,0.2645,0.92,-2.01,0.0,-2.83,54.14,42.31,side
2023-10-02 01:28:37,0.0061,-0.9696,0.2644,0.92,-1.95,0.12,-2.43,53.14,41.83,side
2023-10-02 01:28:37,0.004,-0.9701,0.2638,0.85,-1.89,0.12,-2.89,54.1,41.44,side
2023-10-02 01:28:37,0.0044,-0.969,0.2653,0.79,-1.83,0.31,-2.45,53.89,42.5,side
2023-10-02 01:28:38,0.0048,-0.9696,0.2637,1.04,-1.95,0.18,-2.87,53.97,42.35,side
2023-10-02 01:28:38,0.004,-0.9691,0.2643,0.98,-1.95,0.18,-2.75,54.14,42.52,side
2023-10-02 01:28:38,0.0037,-0.97,0.2631,0.85,-1.95,0.12,-3.17,54.66,41.78,side
2023-10-02 01:28:38,0.004,-0.9697,0.2654,0.98,-2.08,0.18,-2.32,54.57,42.71,side
2023-10-02 01:28:38,0.0032,-0.9701,0.2646,1.16,-1.95,0.37,-2.32,53.93,42.48,side
2023-10-02 01:28:38,0.0046,-0.9694,0.2651,1.04,-2.08,0.12,-2.55,54.27,41.86,side
2023-10-02 01:28:38,0.0057,-0.9711,0.2633,1.1,-2.08,0.18,-2.94,53.98,43.12,side
2023-10-02 01:28:38,0.004,-0.9703,0.2645,1.04,-1.83,0.24,-2.93,54.03,41.98,side
2023-10-02 01:28:38,0.0039,-0.9696,0.2642,1.04,-2.01,0.24,-3.53,54.15,42.31,side
2023-10-02 01:28:39,0.0052,-0.9702,0.2644,0.85,-2.08,0.24,-3.16,54.03,42.6,side
2023-10-02 01:28:39,0.0038,-0.9701,0.2627,0.85,-2.14,0.18,-2.59,54.14,42.63,side
2023-10-02 01:28:39,0.0046,-0.969,0.2634,1.04,-2.01,0.31,-2.93,53.93,42.15,side
2023-10-02 01:28:39,0.006,-0.97,0.2634,0.98,-2.2,0.31,-3.55,54.41,41.32,side
2023-10-02 01:28:39,0.0049,-0.9692,0.2638,0.98,-1.89,0.24,-2.51,54.04,42.3,side
2023-10-02 01:28:39,0.0045,-0.9692,0.2639,0.92,-1.95,0.12,-2.31,54.19,41.2,side
2023-10-02 01:28:39,0.0046,-0.9692,0.2653,0.98,-1.83,0.31,-2.92,54.85,42.18,side
2023-10-02 01:28:39,0.0055,-0.9695,0.2638,0.85,-1.83,0.31,-2.53,54.17,42.38,side
2023-10-02 01:28:39,0.0029,-0.9707,0.2637,1.22,-1.89,0.24,-2.28,53.88,42.1,side
2023-10-02 01:28:40,0.005,-0.9697,0.2631,1.04,-1.83,0.31,-2.83,54.49,41.74,side
2023-10-02 01:28:40,0.004,-0.9708,0.2635,1.04,-1.95,0.31,-2.99,54.66,41.66,side
2023-10-02 01:28:40,0.0044,-0.969,0.2643,1.16,-2.01,0.37,-2.75,53.33,41.98,side
2023-10-02 01:28:40,0.0054,-0.9698,0.2635,1.04,-2.08,0.24,-2.97,53.96,41.99,side
2023-10-02 01:28:40,0.0052,-0.9696,0.2649,1.16,-1.95,0.06,-3.36,55.03,41.82,side
2023-10-02 01:28:40,0.0044,-0.97,0.2643,1.04,-1.83,0.24,-3.1,53.88,41.6,side
2023-10-02 01:28:40,0.004,-0.9705,0.2639,1.22,-1.95,0.24,-2.84,54.0,42.35,side
2023-10-02 01:28:40,0.0042,-0.9695,0.2649,0.92,-1.89,0.24,-2.8,54.83,41.47,side
2023-10-02 01:28:40,0.0044,-0.9709,0.2635,0.92,-1.95,0.24,-2.82,54.87,42.16,side
2023-10-02 01:28:40,0.0033,-0.9703,0.2629,0.98,-2.01,0.12,-2.66,53.85,42.35,side
2023-10-02 01:28:41,0.0038,-0.9698,0.2634,0.98,-2.08,0.31,-2.66,54.33,42.65,side
2023-10-02 01:28:41,0.0039,-0.9714,0.2637,0.92,-1.77,0.24,-3.47,55.29,41.82,side
2023-10-02 01:28:41,0.0039,-0.9689,0.2633,0.92,-2.08,0.06,-3.28,53.97,42.02,side
2023-10-02 01:28:41,0.0038,-0.97,0.2634,0.98,-2.14,0.18,-3.22,54.43,41.89,side
2023-10-02 01:28:41,0.0057,-0.9698,0.2634,0.92,-1.77,0.12,-3.22,54.77,42.26,side
2023-10-02 01:28:41,0.0048,-0.9698,0.2633,1.1,-2.08,0.12,-3.32,54.0,41.11,side
2023-10-02 01:28:41,0.0044,-0.9692,0.2634,1.1,-2.14,0.24,-3.43,53.14,42.86,side
2023-10-02 01:28:41,0.004,-0.9705,0.2625,0.79,-2.01,0.12,-3.38,54.02,41.3,side
2023-10-02 01:28:41,0.0049,-0.9708,0.2634,0.73,-2.08,0.0,-3.14,53.98,41.41,side
2023-10-02 01:28:42,0.0049,-0.9686,0.2632,0.98,-2.01,0.24,-2.51,53.74,42.55,side
2023-10-02 01:28:42,0.0043,-0.9695,0.2621,0.85,-2.08,0.12,-3.0,53.25,41.15,side
2023-10-02 01:28:42,0.0049,-0.9692,0.2638,0.98,-1.89,0.18,-3.25,54.81,42.1,side
2023-10-02 01:28:42,0.0038,-0.9695,0.2635,0.98,-2.01,0.24,-3.37,54.08,41.49,side
2023-10-02 01:28:42,0.0056,-0.9698,0.2637,0.98,-2.08,0.24,-2.61,53.43,41.96,side
2023-10-02 01:28:42,0.0038,-0.9697,0.2649,1.04,-2.08,0.18,-2.86,53.87,41.28,side
2023-10-02 01:28:42,0.0051,-0.9705,0.264,0.92,-2.01,0.18,-3.45,54.35,41.87,side
2023-10-02 01:28:42,0.0046,-0.97,0.2646,1.04,-1.95,0.24,-2.04,53.59,40.99,side
2023-10-02 01:28:42,0.0055,-0.9694,0.2629,0.92,-1.95,0.24,-3.06,54.13,41.06,side
2023-10-02 01:28:43,0.0055,-0.969,0.2653,0.92,-1.95,0.12,-3.12,54.52,41.86,side
2023-10-02 01:28:43,0.0037,-0.9694,0.2653,0.98,-2.01,0.18,-2.78,53.76,40.88,side
2023-10-02 01:28:43,0.0054,-0.9696,0.2643,0.98,-1.83,0.24,-2.67,53.11,41.31,side
2023-10-02 01:28:43,0.0045,-0.97,0.2649,1.04,-1.89,0.31,-3.28,54.28,41.66,side
2023-10-02 01:28:43,0.0043,-0.9716,0.2654,0.98,-1.89,0.18,-2.81,54.11,41.75,side
2023-10-02 01:28:43,0.0042,-0.97,0.2654,1.16,-1.89,0.31,-2.75,53.33,41.27,side
2023-10-02 01:28:43,0.0043,-0.9714,0.2637,1.22,-2.08,0.31,-2.86,53.67,41.0,side
2023-10-02 01:28:43,0.005,-0.9695,0.2645,0.92,-2.08,0.12,-2.84,54.17,41.81,side
2023-10-02 01:28:43,0.0032,-0.9725,0.2638,0.92,-2.01,0.06,-3.12,53.69,42.61,side
2023-10-02 01:28:43,0.0056,-0.9688,0.2642,0.85,-1.89,0.12,-2.56,54.11,41.98,side
2023-10-02 01:28:44,0.0038,-0.9694,0.2634,0.98,-2.01,0.18,-2.62,54.39,42.37,side
2023-10-02 01:28:44,0.0043,-0.9696,0.2639,0.85,-1.95,0.31,-3.04,54.13,41.88,side
2023-10-02 01:28:44,0.0049,-0.9686,0.2649,0.79,-2.01,0.24,-2.48,53.64,41.25,side
2023-10-02 01:28:44,0.0044,-0.9688,0.2639,0.98,-1.89,0.18,-2.91,54.39,41.41,side
2023-10-02 01:28:44,0.0046,-0.9709,0.2646,0.79,-1.89,0.18,-3.38,54.22,42.22,side
2023-10-02 01:28:44,0.0035,-0.9691,0.2654,1.04,-1.95,0.18,-2.76,53.85,40.99,side
2023-10-02 01:28:44,0.0039,-0.9695,0.2657,0.98,-1.89,0.24,-2.87,53.45,42.47,side
2023-10-02 01:28:44,0.0056,-0.9702,0.2643,1.1,-1.89,0.18,-2.94,54.64,41.28,side
2023-10-02 01:28:44,0.0022,-0.97,0.2666,0.85,-1.89,0.24,-2.29,53.52,42.33,side
2023-10-02 01:28:45,0.0043,-0.9653,0.2783,0.85,-2.01,0.37,-2.53,54.22,41.75,side
2023-10-02 01:28:45,0.0084,-0.9692,0.2656,0.79,-1.53,0.18,-2.99,54.42,41.78,side
2023-10-02 01:28:45,0.0002,-0.9722,0.2623,1.1,-2.14,0.24,-2.7,54.48,41.14,side
2023-10-02 01:28:45,0.0095,-0.9657,0.2726,0.92,-1.95,0.24,-2.22,53.17,41.89,side
2023-10-02 01:28:45,-0.0001,-0.973,0.2566,1.1,-1.89,0.12,-2.6,54.58,41.59,side
2023-10-02 01:28:45,0.002,-0.9666,0.2765,0.92,-2.08,0.31,-3.04,54.66,41.19,side
2023-10-02 01:28:45,0.0143,-0.9731,0.2573,1.16,-1.77,0.24,-2.33,53.99,41.92,side
2023-10-02 01:28:45,-0.0098,-0.9717,0.2659,0.92,-2.01,0.24,-2.45,53.59,42.04,side
2023-10-02 01:28:45,0.0105,-0.9664,0.2714,1.04,-2.08,0.18,-2.81,54.26,41.39,side
2023-10-02 01:28:46,0.0023,-0.9724,0.2556,0.85,-1.83,0.37,-2.82,53.88,40.88,side
2023-10-02 01:28:46,0.0024,-0.9652,0.277,0.98,-2.01,0.18,-2.54,53.47,41.75,side
2023-10-02 01:28:46,0.0052,-0.9712,0.2607,0.98,-1.95,0.31,-2.86,54.19,41.46,side
2023-10-02 01:28:46,0.007,-0.9667,0.2675,0.98,-2.01,0.37,-2.54,54.48,41.67,side
2023-10-02 01:28:46,0.0032,-0.9668,0.2626,0.98,-1.77,0.18,-2.33,53.43,41.33,side
2023-10-02 01:28:46,0.0082,-0.9663,0.2632,1.1,-2.08,0.18,-3.26,53.99,41.43,side
2023-10-02 01:28:46,0.0049,-0.9686,0.2661,0.98,-1.95,0.18,-2.97,54.65,41.47,side
2023-10-02 01:28:46,0.0032,-0.9694,0.2633,1.04,-2.01,0.31,-2.62,53.98,43.04,side
2023-10-02 01:28:46,0.0057,-0.9675,0.2679,0.98,-1.77,0.31,-2.37,53.88,42.03,side
2023-10-02 01:28:46,0.0039,-0.9692,0.2649,0.98,-1.95,0.24,-2.67,55.09,41.53,side
2023-10-02 01:28:47,0.0062,-0.9692,0.2672,1.04,-2.01,0.0,-2.64,54.48,42.72,side
2023-10-02 01:28:47,0.0038,-0.9694,0.2637,0.98,-2.14,0.18,-2.25,53.5,41.58,side
2023-10-02 01:28:47,0.005,-0.9689,0.2681,1.04,-2.01,0.24,-2.53,54.32,41.15,side
2023-10-02 01:28:47,0.0052,-0.9702,0.2648,1.04,-1.89,0.24,-3.56,54.31,41.64,side
2023-10-02 01:28:47,0.005,-0.9701,0.2655,1.16,-2.01,0.24,-2.7,53.82,42.85,side
2023-10-02 01:28:47,0.0049,-0.9691,0.266,0.98,-2.01,0.37,-2.58,53.7,41.0,side
2023-10-02 01:28:47,0.0035,-0.9703,0.2668,1.04,-2.01,0.24,-3.37,54.5,42.1,side
2023-10-02 01:28:47,0.0042,-0.969,0.2677,1.1,-1.95,0.37,-2.8,54.27,41.5,side
2023-10-02 01:28:47,0.0043,-0.9711,0.2646,0.98,-1.95,0.24,-2.61,53.72,42.18,side
2023-10-02 01:28:48,0.0043,-0.9692,0.2653,1.16,-1.89,0.31,-3.06,54.48,42.48,side
2023-10-02 01:28:48,0.0046,-0.9702,0.2643,1.22,-2.14,0.24,-3.52,54.5,41.72,side
2023-10-02 01:28:48,0.0048,-0.9697,0.2651,0.92,-2.01,0.18,-2.49,54.16,43.15,side
2023-10-02 01:28:48,0.0045,-0.9696,0.2651,1.1,-1.83,0.31,-2.76,54.24,41.98,side
2023-10-02 01:28:48,0.0043,-0.9697,0.2653,1.1,-1.89,0.43,-3.1,54.38,41.54,side
2023-10-02 01:28:48,0.0039,-0.9707,0.2665,0.92,-2.08,0.12,-2.93,54.42,42.32,side
2023-10-02 01:28:48,0.0037,-0.9705,0.2657,1.1,-2.08,0.18,-2.42,53.98,42.09,side
2023-10-02 01:28:48,0.004,-0.9692,0.2664,1.1,-2.2,0.24,-3.26,54.65,41.86,side
2023-10-02 01:28:48,0.0049,-0.9705,0.2657,1.1,-2.01,0.18,-3.16,53.78,41.5,side
2023-10-02 01:28:48,0.0037,-0.9689,0.266,1.16,-2.01,0.18,-2.34,53.82,41.88,side
2023-10-02 01:28:49,0.004,-0.9692,0.266,1.1,-2.08,0.24,-3.15,54.6,41.99,side
2023-10-02 01:28:49,0.0039,-0.9697,0.265,0.98,-1.95,0.24,-3.12,54.3,42.19,side
2023-10-02 01:28:49,0.005,-0.9696,0.266,0.85,-1.95,0.18,-2.93,53.75,42.31,side
2023-10-02 01:28:49,0.0048,-0.9697,0.2646,0.92,-2.01,0.24,-2.71,54.49,42.13,side
2023-10-02 01:28:49,0.0032,-0.97,0.2666,0.92,-2.14,0.06,-3.03,54.53,41.7,side
2023-10-02 01:28:49,0.0035,-0.9695,0.2661,0.92,-2.01,0.12,-2.72,54.2,42.02,side
2023-10-02 01:28:49,0.0042,-0.9697,0.2661,0.98,-2.08,0.18,-3.0,53.89,41.91,side
2023-10-02 01:28:49,0.0048,-0.9686,0.2655,1.04,-2.01,0.18,-2.69,53.93,41.77,side
2023-10-02 01:28:49,0.0046,-0.9701,0.2654,0.85,-1.95,0.31,-3.42,54.09,41.24,side
2023-10-02 01:28:50,0.005,-0.969,0.2664,0.98,-1.95,0.31,-2.34,53.31,42.9,side
2023-10-02 01:28:50,0.0046,-0.9698,0.2654,1.04,-2.08,0.18,-2.64,54.57,41.37,side
2023-10-02 01:28:50,0.0048,-0.969,0.2649,1.1,-2.2,0.31,-3.0,54.82,41.75,side
2023-10-02 01:28:50,0.0045,-0.9697,0.2672,1.16,-1.77,0.12,-2.89,53.7,41.33,side
2023-10-02 01:28:50,0.0051,-0.9689,0.2655,1.04,-1.95,0.37,-2.53,53.54,42.59,side
2023-10-02 01:28:50,0.0046,-0.9689,0.2649,1.16,-2.01,0.24,-3.09,54.52,41.09,side
2023-10-02 01:28:50,0.0048,-0.9695,0.266,1.04,-1.77,0.31,-2.77,54.17,40.39,side
2023-10-02 01:28:50,0.0055,-0.9684,0.2667,0.98,-1.95,0.06,-2.8,53.16,41.15,side
2023-10-02 01:28:50,0.0035,-0.9696,0.2656,0.98,-1.95,0.12,-3.44,53.58,42.22,side
2023-10-02 01:28:51,0.0043,-0.9691,0.2667,1.1,-1.77,0.31,-3.21,54.54,40.89,side
2023-10-02 01:28:51,0.0044,-0.972,0.2671,1.04,-1.95,0.18,-2.97,53.65,41.37,side
2023-10-02 01:28:51,0.006,-0.9674,0.2673,0.92,-1.95,0.12,-3.03,53.97,41.98,side
2023-10-02 01:28:51,0.0038,-0.969,0.2719,1.1,-2.08,0.43,-3.32,54.24,41.35,side
2023-10-02 01:28:51,0.0079,-0.9684,0.2665,1.16,-1.89,0.18,-2.65,53.54,42.58,side
2023-10-02 01:28:51,0.0054,-0.9686,0.2679,1.1,-2.14,0.43,-2.43,53.63,42.71,side
2023-10-02 01:28:51,0.0046,-0.9675,0.2675,1.1,-1.95,0.12,-3.09,54.46,41.6,side
2023-10-02 01:28:51,0.0037,-0.9717,0.2631,1.1,-1.89,0.37,-2.62,54.5,41.49,side
2023-10-02 01:28:51,0.0049,-0.9686,0.2678,0.92,-2.01,0.31,-2.48,53.81,41.75,side
2023-10-02 01:28:51,0.0039,-0.9707,0.2635,0.85,-1.95,0.12,-3.44,54.24,42.33,side
2023-10-02 01:28:52,0.0042,-0.9694,0.2677,0.98,-1.83,0.12,-3.16,54.63,42.07,side
2023-10-02 01:28:52,0.005,-0.9702,0.2664,0.98,-1.71,0.24,-2.72,53.67,42.35,side
2023-10-02 01:28:52,0.0056,-0.9694,0.2662,1.04,-1.95,0.18,-2.33,54.16,41.36,side
2023-10-02 01:28:52,0.0044,-0.9695,0.2662,0.85,-1.95,0.18,-3.17,54.59,40.6,side
2023-10-02 01:28:52,0.0042,-0.9696,0.2672,0.98,-1.89,0.12,-2.86,54.53,41.14,side
2023-10-02 01:28:52,0.0115,-0.9655,0.2679,1.34,-1.89,0.06,-2.56,53.88,42.72,side
2023-10-02 01:28:52,0.0011,-0.9661,0.2642,0.98,-1.95,0.43,-2.76,54.06,41.42,side
2023-10-02 01:28:52,0.0067,-0.9652,0.2719,1.1,-1.89,0.37,-3.44,54.63,42.05,side
2023-10-02 01:28:52,0.0029,-0.9696,0.2623,1.04,-2.01,0.18,-3.17,53.67,41.14,side
2023-10-02 01:28:53,0.005,-0.9667,0.2697,1.1,-1.89,0.18,-2.72,53.92,41.04,side
2023-10-02 01:28:53,0.0017,-0.9708,0.2639,1.16,-2.08,0.12,-3.23,54.43,42.04,side
2023-10-02 01:28:53,0.0052,-0.9691,0.2661,0.98,-2.01,0.31,-3.14,53.63,41.36,side
2023-10-02 01:28:53,0.0045,-0.9695,0.2665,1.1,-1.95,0.37,-2.81,52.98,42.3,side
2023-10-02 01:28:53,0.0043,-0.9707,0.2644,0.92,-1.89,0.24,-3.37,53.94,42.82,side
2023-10-02 01:28:53,0.0049,-0.9712,0.2645,1.1,-2.08,0.24,-3.26,54.21,42.04,side
2023-10-02 01:28:53,0.0043,-0.9701,0.2648,1.04,-1.89,0.37,-3.22,53.75,41.31,side
2023-10-02 01:28:53,0.0056,-0.9695,0.2644,0.92,-1.77,0.31,-3.2,54.13,42.88,side
2023-10-02 01:28:53,0.0043,-0.9701,0.2632,1.1,-2.01,0.37,-3.58,54.61,41.89,side
2023-10-02 01:28:54,0.0057,-0.9686,0.2666,1.04,-1.89,0.24,-3.72,53.39,41.55,side
2023-10-02 01:28:54,0.0032,-0.9703,0.2638,0.92,-1.95,0.18,-3.5,54.02,41.32,side
2023-10-02 01:28:54,0.0048,-0.9701,0.2654,1.1,-2.14,0.43,-3.44,54.35,41.21,side
2023-10-02 01:28:54,0.0035,-0.9708,0.2642,0.85,-2.01,0.24,-3.36,54.02,41.06,side
2023-10-02 01:28:54,0.005,-0.9696,0.2651,0.92,-1.95,0.12,-2.73,53.42,41.66,side
2023-10-02 01:28:54,0.0035,-0.9703,0.2629,1.1,-2.01,0.18,-3.28,54.2,41.58,side
2023-10-02 01:28:54,0.0044,-0.9694,0.2656,0.85,-2.2,0.12,-3.67,54.47,41.64,side
2023-10-02 01:28:54,0.0054,-0.97,0.2653,0.85,-1.95,0.12,-3.56,53.47,40.75,side
2023-10-02 01:28:54,0.0046,-0.969,0.2656,1.1,-2.14,0.12,-3.41,53.98,41.74,side
2023-10-02 01:28:54,0.0046,-0.97,0.2634,1.1,-2.08,0.18,-3.74,54.25,41.53,side
2023-10-02 01:28:55,0.0038,-0.97,0.2627,1.04,-2.01,0.18,-3.48,54.28,41.04,side
2023-10-02 01:28:55,0.0046,-0.9698,0.2661,0.79,-1.83,0.18,-3.23,53.64,41.11,side
2023-10-02 01:28:55,0.0038,-0.9701,0.2637,0.98,-2.08,0.18,-3.04,54.15,42.35,side
2023-10-02 01:28:55,0.0057,-0.9694,0.2648,1.04,-1.89,0.24,-3.55,54.22,42.07,side
2023-10-02 01:28:55,0.0042,-0.9701,0.2633,0.98,-1.95,0.18,-2.76,53.22,41.88,side
2023-10-02 01:28:55,0.0049,-0.97,0.2638,1.04,-1.95,0.06,-3.28,53.77,41.85,side
2023-10-02 01:28:55,0.0055,-0.9697,0.265,1.04,-1.83,0.18,-3.43,53.89,41.75,side
2023-10-02 01:28:55,0.0034,-0.97,0.2644,0.92,-1.95,0.43,-3.03,54.08,41.69,side
2023-10-02 01:28:55,0.0043,-0.97,0.2644,0.98,-1.95,0.24,-2.72,53.14,42.27,side
2023-10-02 01:28:56,0.0038,-0.9702,0.2637,1.22,-1.95,0.24,-3.72,54.06,42.14,side
2023-10-02 01:28:56,0.0043,-0.9712,0.2651,0.98,-1.95,0.12,-3.61,54.31,41.39,side
2023-10-02 01:28:56,0.0044,-0.97,0.2646,0.92,-1.89,0.31,-3.03,53.14,43.26,side
2023-10-02 01:28:56,0.0031,-0.9713,0.2642,0.92,-1.95,0.18,-3.33,54.22,40.6,side
2023-10-02 01:28:56,0.0045,-0.9692,0.2628,0.85,-2.08,0.24,-3.71,54.0,41.72,side
2023-10-02 01:28:56,0.0039,-0.969,0.2649,1.04,-1.95,0.24,-3.06,53.12,41.59,side
2023-10-02 01:28:56,0.004,-0.9706,0.2629,1.1,-1.89,0.18,-3.43,53.91,41.78,side
2023-10-02 01:28:56,0.0044,-0.9689,0.264,0.98,-1.83,0.24,-3.33,54.63,41.97,side
2023-10-02 01:28:56,0.0042,-0.9692,0.2639,0.98,-1.89,0.0,-3.36,53.77,41.8,side
2023-10-02 01:28:57,0.0038,-0.97,0.2648,0.85,-1.95,0.18,-2.4,53.36,41.15,side
2023-10-02 01:28:57,0.0049,-0.97,0.2631,0.67,-1.95,0.18,-2.78,53.76,41.1,side
2023-10-02 01:28:57,0.0049,-0.9698,0.2643,0.98,-1.89,0.24,-3.04,53.86,42.33,side
2023-10-02 01:28:57,0.0048,-0.9705,0.264,0.85,-1.89,0.24,-2.93,53.32,41.98,side
2023-10-02 01:28:57,0.0048,-0.97,0.2638,0.73,-1.89,0.37,-2.91,53.87,41.3,side
2023-10-02 01:28:57,0.0039,-0.9697,0.2635,0.92,-1.77,0.31,-3.36,54.35,41.37,side
2023-10-02 01:28:57,0.0035,-0.97,0.2651,1.04,-2.01,0.18,-3.67,53.47,41.83,side
2023-10-02 01:28:57,0.0042,-0.9696,0.2639,0.98,-1.95,0.24,-3.12,53.09,42.04,side
2023-10-02 01:28:57,0.0045,-0.9698,0.2645,0.85,-1.95,0.06,-3.12,54.26,42.15,side
2023-10-02 01:28:57,0.0045,-0.9696,0.2635,0.98,-1.95,0.18,-3.04,53.85,42.33,side
2023-10-02 01:28:58,0.0044,-0.9697,0.264,1.04,-1.95,0.24,-2.88,53.2,42.49,side
2023-10-02 01:28:58,0.004,-0.9702,0.2635,0.98,-1.95,0.18,-3.28,53.75,41.28,side
2023-10-02 01:28:58,0.0049,-0.9707,0.2628,1.22,-1.95,0.06,-3.39,53.99,42.04,side
2023-10-02 01:28:58,0.0044,-0.9706,0.2644,0.85,-2.01,0.18,-3.17,53.48,42.14,side
2023-10-02 01:28:58,0.0042,-0.9703,0.264,1.04,-1.95,0.12,-2.92,53.53,42.24,side
2023-10-02 01:28:58,0.0046,-0.9698,0.2645,1.04,-1.95,0.24,-3.78,54.11,42.37,side
2023-10-02 01:28:58,0.0045,-0.9703,0.2632,1.04,-1.89,0.24,-2.75,53.22,41.83,side
2023-10-02 01:28:58,0.0057,-0.9719,0.2648,0.92,-1.89,0.31,-2.84,53.53,41.04,side
2023-10-02 01:28:58,0.005,-0.9698,0.2643,0.98,-1.83,0.18,-3.28,53.96,41.93,side
2023-10-02 01:28:59,0.0037,-0.9698,0.2646,0.85,-1.95,0.31,-3.54,53.85,42.71,side
2023-10-02 01:28:59,0.0045,-0.9696,0.2635,0.85,-1.83,0.31,-2.66,53.16,42.76,side
2023-10-02 01:28:59,0.0042,-0.9697,0.2657,1.04,-2.01,0.43,-3.5,54.11,42.37,side
2023-10-02 01:28:59,0.0038,-0.9695,0.2645,0.79,-1.89,0.18,-3.41,54.68,42.32,side
2023-10-02 01:28:59,0.0042,-0.9702,0.2638,0.98,-2.08,0.18,-3.17,53.88,42.26,side
2023-10-02 01:28:59,0.005,-0.9697,0.2646,0.85,-1.95,0.24,-3.02,53.82,42.43,side
2023-10-02 01:28:59,0.0054,-0.9698,0.2649,1.04,-2.14,0.18,-3.0,54.22,41.06,side
2023-10-02 01:28:59,0.004,-0.9692,0.2643,0.92,-2.01,0.24,-3.14,54.08,41.8,side
2023-10-02 01:28:59,0.0048,-0.9697,0.2637,1.04,-1.89,0.24,-3.09,53.77,41.92,side
2023-10-02 01:29:00,0.0043,-0.9697,0.2646,0.85,-2.08,0.24,-3.27,53.65,41.67,side
2023-10-02 01:29:00,0.0042,-0.9698,0.2635,0.85,-1.95,0.31,-3.44,54.74,42.09,side
2023-10-02 01:29:00,0.0042,-0.9697,0.2653,0.85,-2.08,0.31,-2.58,53.48,42.86,side
2023-10-02 01:29:00,0.004,-0.9696,0.2635,0.79,-1.89,0.18,-3.0,53.38,42.1,side
2023-10-02 01:29:00,0.0057,-0.9701,0.2656,1.04,-1.89,0.37,-3.34,54.13,42.48,side
2023-10-02 01:29:00,0.0039,-0.9691,0.2642,1.04,-1.95,0.06,-3.1,53.55,41.64,side
2023-10-02 01:29:00,0.0046,-0.9696,0.2646,1.04,-1.89,0.37,-2.66,53.64,42.25,side
2023-10-02 01:29:00,0.0048,-0.97,0.2657,0.98,-1.83,0.31,-2.95,54.05,42.93,side
2023-10-02 01:29:00,0.005,-0.9697,0.2643,0.92,-1.83,0.24,-3.8,53.98,42.27,side
2023-10-02 01:29:00,0.0035,-0.97,0.2655,0.98,-1.89,0.18,-2.8,53.92,42.3,side
2023-10-02 01:29:01,0.0043,-0.9703,0.2651,1.1,-1.89,0.37,-3.25,54.15,42.11,side
2023-10-02 01:29:01,0.0042,-0.9705,0.2649,1.16,-1.89,0.24,-3.31,54.25,42.9,side
2023-10-02 01:29:01,0.0049,-0.9689,0.2646,1.04,-2.08,0.31,-3.1,53.45,42.2,side
2023-10-02 01:29:01,0.0052,-0.9706,0.2642,0.98,-2.01,0.18,-3.1,53.52,41.81,side
2023-10-02 01:29:01,0.0049,-0.9698,0.2651,1.04,-1.89,0.12,-3.14,54.31,42.64,side
2023-10-02 01:29:01,0.0043,-0.9709,0.2638,1.04,-1.89,0.18,-2.98,53.1,41.8,side
2023-10-02 01:29:01,0.005,-0.9697,0.2657,1.04,-1.83,0.31,-2.51,53.41,41.91,side
2023-10-02 01:29:01,0.0044,-0.97,0.2659,0.79,-1.83,0.24,-3.37,53.89,41.59,side
2023-10-02 01:29:01,0.0042,-0.9694,0.2645,0.79,-1.95,0.24,-3.14,53.67,41.6,side
2023-10-02 01:29:02,0.0045,-0.9702,0.2642,0.73,-1.89,0.37,-2.04,53.49,43.1,side
2023-10-02 01:29:02,0.0049,-0.9688,0.2661,0.85,-2.01,0.18,-2.73,53.86,41.04,side
2023-10-02 01:29:02,0.0045,-0.9692,0.2657,0.85,-1.95,0.18,-3.02,54.06,43.05,side
2023-10-02 01:29:02,0.0042,-0.9692,0.2645,0.79,-2.01,0.31,-2.65,53.67,42.48,side
2023-10-02 01:29:02,0.0057,-0.9689,0.2644,1.04,-1.95,0.24,-2.47,52.98,41.82,side
2023-10-02 01:29:02,0.0051,-0.9696,0.2643,0.85,-1.83,0.24,-2.98,54.46,41.19,side
2023-10-02 01:29:02,0.004,-0.9712,0.2646,1.1,-1.95,0.31,-2.84,53.85,42.14,side
2023-10-02 01:29:02,0.0044,-0.9708,0.2642,1.16,-1.89,0.31,-2.83,53.69,40.86,side
2023-10-02 01:29:02,0.005,-0.9698,0.2654,1.1,-1.95,0.37,-2.66,54.5,42.19,side
2023-10-02 01:29:03,0.0046,-0.9702,0.2637,1.1,-1.89,0.43,-3.25,54.71,41.88,side
2023-10-02 01:29:03,0.0046,-0.9696,0.2646,1.04,-1.83,0.24,-2.72,54.16,42.49,side
2023-10-02 01:29:03,0.0052,-0.9701,0.265,0.98,-1.83,0.24,-2.37,53.85,42.18,side
2023-10-02 01:29:03,0.0057,-0.9702,0.2638,0.98,-1.95,0.24,-3.31,53.92,41.78,side
2023-10-02 01:29:03,0.0039,-0.9706,0.2639,1.04,-1.95,0.24,-3.65,54.27,42.21,side
2023-10-02 01:29:03,0.0051,-0.9696,0.2637,1.04,-1.95,0.18,-2.97,53.63,42.18,side
2023-10-02 01:29:03,0.0038,-0.9709,0.265,0.92,-1.95,0.12,-3.38,53.91,41.13,side
2023-10-02 01:29:03,0.0045,-0.9702,0.2631,1.04,-2.08,0.06,-3.66,54.44,41.71,side
2023-10-02 01:29:03,0.004,-0.9708,0.2645,1.04,-1.95,0.18,-2.75,53.39,41.92,side
2023-10-02 01:29:03,0.0046,-0.9698,0.264,0.79,-1.89,0.24,-2.77,53.66,42.07,side
2023-10-02 01:29:04,0.0063,-0.9695,0.2649,1.1,-2.08,0.31,-3.25,53.94,41.56,side
2023-10-02 01:29:04,0.0042,-0.9691,0.2646,0.92,-1.95,0.24,-3.11,53.65,42.18,side
2023-10-02 01:29:04,0.0054,-0.9714,0.2642,0.85,-2.01,0.12,-2.5,53.78,42.64,side
2023-10-02 01:29:04,0.005,-0.9697,0.2643,0.98,-1.95,0.18,-3.39,54.1,42.16,side
2023-10-02 01:29:04,0.0038,-0.9702,0.2639,0.79,-1.95,0.24,-3.42,54.02,42.5,side
2023-10-02 01:29:04,0.0043,-0.9698,0.2656,0.98,-1.95,0.06,-2.84,54.09,42.38,side
2023-10-02 01:29:04,0.0044,-0.9695,0.2642,1.04,-2.01,0.18,-3.26,54.68,41.76,side
2023-10-02 01:29:04,0.0054,-0.9692,0.2643,0.92,-2.08,0.24,-3.0,54.13,41.28,side
2023-10-02 01:29:04,0.0052,-0.9697,0.2662,0.98,-2.08,0.24,-2.78,53.87,41.88,side
2023-10-02 01:29:05,0.0049,-0.9695,0.2639,1.04,-2.01,0.24,-2.86,54.05,42.48,side
2023-10-02 01:29:05,0.0046,-0.9708,0.266,1.1,-1.95,0.18,-3.21,54.21,42.69,side
2023-10-02 01:29:05,0.005,-0.9697,0.2629,0.92,-2.01,0.18,-2.83,53.81,41.6,side
2023-10-02 01:29:05,0.005,-0.9695,0.2651,0.85,-1.89,0.18,-3.14,53.94,42.79,side
2023-10-02 01:29:05,0.0042,-0.9703,0.2644,0.85,-1.71,0.18,-2.82,54.19,41.6,side
2023-10-02 01:29:05,0.0045,-0.97,0.2662,1.1,-1.95,0.12,-3.88,54.65,42.75,side
2023-10-02 01:29:05,0.005,-0.9694,0.2657,1.04,-2.2,0.18,-2.48,53.21,42.19,side
2023-10-02 01:29:05,0.0032,-0.9701,0.2654,0.98,-2.08,0.31,-2.62,53.63,41.7,side
2023-10-02 01:29:05,0.0045,-0.9691,0.266,0.98,-2.08,0.24,-3.39,54.15,42.16,side
2023-10-02 01:29:06,0.0038,-0.9698,0.2656,1.04,-2.08,0.18,-3.03,53.2,41.97,side
2023-10-02 01:29:06,0.0048,-0.9696,0.2653,0.92,-2.08,0.18,-2.65,53.03,42.1,side
2023-10-02 01:29:06,0.0039,-0.9696,0.2649,0.85,-1.95,0.12,-2.78,54.17,41.58,side
2023-10-02 01:29:06,0.0044,-0.9714,0.2656,0.98,-2.2,0.24,-3.11,53.78,42.14,side
2023-10-02 01:29:06,0.0038,-0.9696,0.2644,1.04,-2.2,0.24,-2.62,53.15,41.13,side
2023-10-02 01:29:06,0.0043,-0.9709,0.2662,0.98,-2.14,0.24,-3.48,53.83,41.27,side
2023-10-02 01:29:06,0.0044,-0.97,0.2655,0.85,-2.08,0.31,-3.65,54.46,41.48,side
2023-10-02 01:29:06,0.0042,-0.9694,0.2655,1.1,-1.95,0.24,-3.19,53.48,42.88,side
2023-10-02 01:29:06,0.0035,-0.9701,0.2638,0.92,-2.08,0.12,-3.09,53.67,41.87,side
2023-10-02 01:29:06,0.0045,-0.9697,0.2643,0.73,-2.01,0.12,-3.78,54.2,41.76,side
2023-10-02 01:29:07,0.0044,-0.9692,0.2631,0.92,-2.08,0.31,-3.32,53.93,41.85,side
2023-10-02 01:29:07,0.0045,-0.9702,0.2646,0.79,-1.95,0.24,-2.93,53.21,41.59,side
2023-10-02 01:29:07,0.005,-0.9707,0.2649,0.98,-2.08,0.18,-2.98,53.83,41.87,side
2023-10-02 01:29:07,0.0049,-0.9702,0.2637,0.79,-2.01,0.31,-3.63,53.86,42.52,side
2023-10-02 01:29:07,0.0051,-0.9698,0.2645,1.1,-1.89,0.18,-2.66,53.41,42.88,side
2023-10-02 01:29:07,0.0049,-0.9698,0.2631,1.22,-2.01,0.18,-3.03,53.49,40.99,side
2023-10-02 01:29:07,0.0054,-0.9692,0.265,0.98,-1.89,0.31,-3.39,53.93,41.19,side
2023-10-02 01:29:07,0.0048,-0.9701,0.2637,0.92,-2.01,0.18,-3.25,53.55,42.05,side
2023-10-02 01:29:07,0.0049,-0.9696,0.2634,0.92,-2.08,0.24,-2.66,53.54,42.14,side
2023-10-02 01:29:08,0.0044,-0.9694,0.2646,1.1,-2.01,0.18,-2.83,53.86,42.86,side
2023-10-02 01:29:08,0.0035,-0.9696,0.2638,0.98,-1.95,0.24,-3.39,54.38,41.6,side
2023-10-02 01:29:08,0.005,-0.9696,0.2656,1.1,-2.08,0.18,-2.8,53.65,41.82,side
2023-10-02 01:29:08,0.004,-0.9695,0.2648,0.92,-1.95,0.31,-2.88,53.63,42.81,side
2023-10-02 01:29:08,0.0044,-0.9703,0.2648,0.73,-1.83,0.12,-3.39,54.53,41.87,side
2023-10-02 01:29:08,0.0044,-0.9697,0.2635,1.1,-2.08,0.12,-3.22,53.41,42.0,side
2023-10-02 01:29:08,0.0044,-0.9702,0.2642,1.1,-2.08,0.24,-3.2,53.34,41.64,side
2023-10-02 01:29:08,0.0042,-0.9697,0.2634,1.04,-2.14,0.12,-3.48,54.13,42.19,side
2023-10-02 01:29:08,0.0051,-0.9701,0.2631,0.98,-2.01,0.24,-3.1,53.78,41.55,side
2023-10-02 01:29:09,0.0057,-0.9689,0.2631,0.98,-2.08,0.18,-2.4,52.88,42.74,side
2023-10-02 01:29:09,0.0051,-0.9696,0.2629,1.1,-2.01,0.18,-3.12,53.74,41.88,side
2023-10-02 01:29:09,0.0039,-0.9696,0.2648,0.98,-1.89,0.24,-3.53,53.7,42.47,side
2023-10-02 01:29:09,0.0033,-0.9701,0.2631,0.79,-2.08,0.24,-2.76,52.89,41.55,side
2023-10-02 01:29:09,0.004,-0.9706,0.2632,0.85,-1.95,0.18,-3.32,53.45,42.85,side
2023-10-02 01:29:09,0.0033,-0.97,0.2638,0.85,-2.08,0.12,-3.31,53.98,41.06,side
2023-10-02 01:29:09,0.0055,-0.9701,0.2633,1.04,-2.08,0.18,-2.55,53.55,42.19,side
2023-10-02 01:29:09,0.0052,-0.9692,0.2648,0.85,-1.89,0.31,-2.65,53.78,41.85,side
2023-10-02 01:29:09,0.0042,-0.9701,0.2639,1.1,-2.14,0.31,-3.14,53.64,41.83,side
2023-10-02 01:29:09,0.0043,-0.9696,0.2656,0.85,-1.95,0.12,-2.93,53.55,41.92,side
2023-10-02 01:29:10,0.0046,-0.9711,0.2642,0.92,-2.14,0.12,-2.39,53.26,41.11,side
2023-10-02 01:29:10,0.0045,-0.9691,0.2646,0.98,-1.83,0.31,-2.93,53.64,41.54,side
2023-10-02 01:29:10,0.0048,-0.9697,0.2625,0.98,-1.95,0.24,-3.48,54.37,42.4,side
2023-10-02 01:29:10,0.004,-0.97,0.2626,1.1,-1.95,0.18,-2.72,53.11,42.88,side
2023-10-02 01:29:10,0.0051,-0.9702,0.2651,0.85,-1.89,0.37,-2.26,52.93,42.35,side
2023-10-02 01:29:10,0.0045,-0.9701,0.2639,0.98,-2.08,0.18,-3.1,54.05,42.79,side
2023-10-02 01:29:10,0.0037,-0.9694,0.2648,0.98,-1.77,0.31,-3.43,53.99,41.54,side
2023-10-02 01:29:10,0.0042,-0.9697,0.2634,0.92,-1.71,0.31,-2.12,53.78,42.3,side
2023-10-02 01:29:10,0.0044,-0.9686,0.264,1.1,-1.77,0.24,-2.73,53.15,41.98,side
2023-10-02 01:29:11,0.004,-0.9707,0.2637,0.85,-1.71,0.18,-3.06,54.37,42.87,side
2023-10-02 01:29:11,0.0046,-0.9718,0.2646,0.98,-2.01,0.12,-3.06,54.0,42.92,side
2023-10-02 01:29:11,0.0045,-0.97,0.2635,0.92,-1.95,0.24,-3.04,53.74,42.76,side
2023-10-02 01:29:11,0.0037,-0.9708,0.2634,0.85,-1.95,0.06,-3.6,53.78,42.77,side
2023-10-02 01:29:11,0.0057,-0.9691,0.2635,1.04,-1.89,0.18,-3.28,53.63,42.37,side
2023-10-02 01:29:11,0.0054,-0.97,0.2653,1.04,-1.89,0.24,-2.48,53.11,42.83,side
2023-10-02 01:29:11,0.0057,-0.9698,0.2646,0.98,-1.89,0.24,-2.53,53.48,42.18,side
2023-10-02 01:29:11,0.0042,-0.9708,0.2635,1.04,-1.89,0.18,-3.41,53.96,42.4,side
2023-10-02 01:29:11,0.0039,-0.9696,0.2662,0.92,-1.95,0.37,-3.3,53.08,42.6,side
2023-10-02 01:29:12,0.0044,-0.9703,0.2656,0.67,-1.95,0.12,-3.5,53.34,42.1,side
2023-10-02 01:29:12,0.005,-0.9697,0.2646,0.92,-1.95,0.24,-3.3,53.71,41.52,side
2023-10-02 01:29:12,0.0045,-0.9703,0.2642,0.85,-1.95,0.18,-3.16,53.45,42.85,side
2023-10-02 01:29:12,0.0044,-0.969,0.2661,0.92,-2.08,0.24,-3.08,52.7,41.81,side
2023-10-02 01:29:12,0.0042,-0.9697,0.2655,0.85,-1.95,0.18,-2.86,53.32,42.05,side
2023-10-02 01:29:12,0.0049,-0.9708,0.264,1.04,-2.14,0.18,-3.5,53.16,42.24,side
2023-10-02 01:29:12,0.005,-0.9697,0.2662,1.04,-1.95,0.24,-3.16,53.03,41.33,side
2023-10-02 01:29:12,0.0045,-0.9702,0.264,1.1,-1.83,0.24,-3.17,53.44,41.27,side
2023-10-02 01:29:12,0.0034,-0.9697,0.2664,0.98,-1.89,0.18,-3.08,53.87,41.7,side
2023-10-02 01:29:12,0.0033,-0.9697,0.2639,0.98,-1.89,0.31,-2.4,53.97,42.2,side
2023-10-02 01:29:13,0.0054,-0.9694,0.2649,0.98,-1.89,0.24,-2.54,52.77,42.37,side
2023-10-02 01:29:13,0.0049,-0.9697,0.2644,0.98,-2.01,0.31,-2.99,53.58,41.39,side
2023-10-02 01:29:13,0.0049,-0.9697,0.2634,1.16,-1.89,0.12,-3.17,53.44,41.67,side
2023-10-02 01:29:13,0.005,-0.969,0.2657,1.1,-1.95,0.24,-3.25,53.2,42.88,side
2023-10-02 01:29:13,0.0037,-0.9705,0.2631,1.22,-2.14,0.0,-2.89,54.1,42.35,side
2023-10-02 01:29:13,0.0043,-0.9688,0.2655,0.92,-2.08,0.24,-3.15,54.31,42.14,side
2023-10-02 01:29:13,0.0045,-0.9706,0.2642,1.1,-1.95,0.18,-2.91,53.8,41.26,side
2023-10-02 01:29:13,0.005,-0.9709,0.2644,1.04,-2.01,0.24,-3.37,53.83,42.27,side
2023-10-02 01:29:13,0.0045,-0.9707,0.2635,1.04,-2.01,0.18,-3.48,54.06,42.14,side
2023-10-02 01:29:14,0.0059,-0.9698,0.2646,1.1,-1.89,0.18,-2.81,53.87,42.22,side
2023-10-02 01:29:14,0.004,-0.9706,0.2629,1.1,-2.08,0.24,-2.65,53.96,42.63,side
2023-10-02 01:29:14,0.005,-0.9694,0.2649,0.92,-2.01,0.24,-3.25,53.88,42.86,side
2023-10-02 01:29:14,0.004,-0.9705,0.2625,0.85,-2.01,0.06,-3.2,53.63,42.64,side
2023-10-02 01:29:14,0.0046,-0.9694,0.266,0.92,-2.14,0.12,-2.86,52.78,42.16,side
2023-10-02 01:29:14,0.0044,-0.9705,0.2651,0.92,-2.08,0.18,-2.82,53.78,41.96,side
2023-10-02 01:29:14,0.0045,-0.9706,0.2651,0.98,-2.08,0.12,-2.95,53.76,42.6,side
2023-10-02 01:29:14,0.0048,-0.9706,0.266,1.1,-2.08,0.31,-2.69,53.76,41.5,side
2023-10-02 01:29:14,0.0048,-0.9694,0.2653,1.1,-1.95,0.31,-2.49,53.75,42.77,side
2023-10-02 01:29:14,0.004,-0.9701,0.2666,1.16,-1.95,0.31,-2.8,54.36,41.78,side
2023-10-02 01:29:15,0.0035,-0.9692,0.2681,1.04,-2.08,0.18,-2.77,53.53,42.91,side
2023-10-02 01:29:15,0.0059,-0.9694,0.2667,1.04,-2.08,0.06,-3.21,53.37,42.54,side
2023-10-02 01:29:15,0.005,-0.9695,0.2654,0.98,-1.95,0.43,-3.09,54.59,42.7,side
2023-10-02 01:29:15,0.0052,-0.9697,0.2661,0.98,-2.08,0.12,-3.6,54.54,43.33,side
2023-10-02 01:29:15,0.0057,-0.9702,0.2653,1.04,-1.89,0.24,-2.75,53.56,41.75,side
2023-10-02 01:29:15,0.0045,-0.9705,0.2633,1.1,-2.14,0.24,-2.64,53.67,42.83,side
2023-10-02 01:29:15,0.0057,-0.9707,0.266,0.79,-2.01,0.18,-3.7,54.22,43.19,side
2023-10-02 01:29:15,0.004,-0.9714,0.2623,1.04,-2.08,0.18,-2.98,54.1,42.64,side
2023-10-02 01:29:15,0.0055,-0.9692,0.2667,1.04,-2.01,0.31,-2.61,53.54,42.96,side
2023-10-02 01:29:16,0.0034,-0.9708,0.2633,0.92,-2.01,0.24,-2.94,54.31,42.48,side
2023-10-02 01:29:16,0.0068,-0.9696,0.265,1.22,-1.95,0.24,-3.12,54.43,42.38,side
2023-10-02 01:29:16,0.0026,-0.9702,0.2639,0.85,-2.01,0.12,-2.53,53.98,42.37,side
2023-10-02 01:29:16,0.0048,-0.9705,0.2651,1.28,-2.01,0.18,-2.99,54.22,41.89,side
2023-10-02 01:29:16,0.006,-0.9697,0.2634,0.98,-1.83,0.24,-2.99,54.86,40.94,side
2023-10-02 01:29:16,0.0043,-0.9695,0.2639,1.04,-1.95,0.31,-2.77,53.85,41.93,side
2023-10-02 01:29:16,0.0055,-0.97,0.2653,1.1,-2.14,0.31,-3.05,54.06,42.88,side
2023-10-02 01:29:16,0.004,-0.9694,0.266,0.92,-2.08,0.12,-3.55,54.02,42.15,side
2023-10-02 01:29:16,0.0054,-0.9705,0.2648,1.16,-2.14,0.18,-3.09,53.59,42.87,side
2023-10-02 01:29:17,0.0061,-0.9697,0.2649,0.85,-1.89,0.18,-2.88,53.55,41.78,side
2023-10-02 01:29:17,0.0052,-0.9701,0.265,0.92,-2.01,0.18,-2.83,53.64,41.54,side
2023-10-02 01:29:17,0.0042,-0.97,0.2655,0.79,-2.08,0.12,-3.27,54.52,40.59,side
2023-10-02 01:29:17,0.005,-0.9708,0.2637,1.1,-1.95,0.37,-2.78,53.52,43.3,side
2023-10-02 01:29:17,0.0049,-0.9705,0.2637,0.92,-1.83,0.24,-2.39,53.99,42.24,side
2023-10-02 01:29:17,0.0057,-0.9702,0.2653,1.22,-1.83,0.18,-3.03,54.08,41.81,side
2023-10-02 01:29:17,0.0044,-0.9722,0.2642,0.92,-1.77,0.37,-3.03,53.97,41.77,side
2023-10-02 01:29:17,0.0051,-0.9692,0.2654,0.92,-1.83,0.31,-2.91,53.58,41.96,side
2023-10-02 01:29:17,0.0052,-0.9698,0.2649,1.28,-1.89,0.18,-2.73,54.1,42.02,side
2023-10-02 01:29:17,0.0045,-0.9708,0.2633,1.04,-1.77,0.18,-2.87,54.02,41.98,side
2023-10-02 01:29:18,0.0054,-0.9695,0.264,1.16,-2.08,0.37,-2.53,53.96,42.21,side
2023-10-02 01:29:18,0.0046,-0.9703,0.2639,0.85,-2.08,0.24,-3.04,53.49,41.1,side
2023-10-02 01:29:18,0.0045,-0.9698,0.2642,0.92,-1.89,0.24,-3.32,53.93,41.92,side
2023-10-02 01:29:18,0.0046,-0.9707,0.2623,1.1,-2.01,0.18,-2.61,53.59,41.33,side
2023-10-02 01:29:18,0.0049,-0.9701,0.2631,0.98,-2.01,0.31,-3.09,53.34,41.66,side
2023-10-02 01:29:18,0.0045,-0.9708,0.2638,0.85,-1.83,0.31,-2.45,53.6,42.79,side
2023-10-02 01:29:18,0.0043,-0.9695,0.2637,1.04,-1.89,0.12,-2.72,54.55,41.67,side
2023-10-02 01:29:18,0.0042,-0.9707,0.262,0.85,-1.89,0.12,-2.36,53.71,43.31,side
2023-10-02 01:29:18,0.0051,-0.9695,0.2627,0.92,-2.01,0.31,-3.19,54.49,41.43,side
2023-10-02 01:29:19,0.004,-0.9714,0.2632,1.1,-1.95,0.24,-3.28,53.78,42.03,side
2023-10-02 01:29:19,0.0034,-0.9696,0.2642,0.85,-2.08,0.31,-2.49,53.36,42.1,side
2023-10-02 01:29:19,0.0037,-0.9703,0.2642,1.22,-2.08,0.24,-2.78,53.52,41.91,side
2023-10-02 01:29:19,0.0043,-0.9712,0.2629,0.92,-1.89,0.18,-2.89,54.04,42.05,side
2023-10-02 01:29:19,0.0045,-0.9697,0.2632,0.85,-1.95,0.24,-2.53,53.53,41.75,side
2023-10-02 01:29:19,0.0055,-0.9701,0.2631,0.67,-1.95,0.12,-2.23,53.04,42.53,side
2023-10-02 01:29:19,0.0037,-0.9705,0.2627,0.79,-1.83,0.24,-2.99,54.06,41.69,side
2023-10-02 01:29:19,0.0054,-0.9703,0.2622,0.79,-1.83,0.31,-3.03,53.75,42.74,side
2023-10-02 01:29:19,0.005,-0.9695,0.2637,0.92,-1.95,0.12,-2.03,53.06,43.08,side
2023-10-02 01:29:20,0.0038,-0.9703,0.2629,0.98,-1.77,0.12,-2.45,53.61,40.97,side
2023-10-02 01:29:20,0.0033,-0.9694,0.2638,1.16,-1.77,0.31,-2.72,54.26,42.61,side
2023-10-02 01:29:20,0.0052,-0.9696,0.2637,1.22,-1.95,0.24,-2.83,53.82,42.94,side
2023-10-02 01:29:20,0.0046,-0.9695,0.2631,0.92,-1.89,0.31,-2.49,53.17,41.98,side
2023-10-02 01:29:20,0.0049,-0.9706,0.2625,0.98,-1.89,0.31,-3.34,53.63,41.89,side
2023-10-02 01:29:20,0.0052,-0.9695,0.2643,1.04,-1.89,0.24,-3.08,54.09,41.08,side
2023-10-02 01:29:20,0.0048,-0.97,0.2633,0.92,-1.89,0.18,-2.75,53.6,42.68,side
2023-10-02 01:29:20,0.0043,-0.9695,0.264,1.1,-1.95,0.49,-2.92,54.2,40.69,side
2023-10-02 01:29:20,0.0048,-0.9698,0.2638,0.98,-1.95,0.24,-3.05,54.6,41.14,side
2023-10-02 01:29:20,0.0054,-0.9697,0.2645,1.04,-2.01,0.31,-2.99,54.15,42.58,side
2023-10-02 01:29:21,0.0043,-0.9702,0.2639,1.04,-1.89,0.18,-3.16,53.15,42.2,side
2023-10-02 01:29:21,0.0042,-0.9705,0.266,0.92,-2.01,0.24,-3.25,53.63,42.77,side
2023-10-02 01:29:21,0.0044,-0.9703,0.2638,0.98,-1.89,0.18,-2.98,53.58,42.6,side
2023-10-02 01:29:21,0.0038,-0.9698,0.2637,0.98,-1.95,0.31,-2.65,53.27,42.59,side
2023-10-02 01:29:21,0.0044,-0.9698,0.2629,1.04,-1.89,0.18,-3.25,54.43,43.01,side
2023-10-02 01:29:21,0.0059,-0.9696,0.2655,1.1,-1.89,0.37,-3.1,54.16,42.29,side
2023-10-02 01:29:21,0.0042,-0.9697,0.2643,0.85,-1.89,0.12,-2.76,53.56,41.93,side
2023-10-02 01:29:21,0.0051,-0.9706,0.2644,0.85,-1.95,0.18,-2.47,54.33,41.71,side
2023-10-02 01:29:21,0.0044,-0.9697,0.2646,0.61,-1.95,0.24,-3.38,54.25,42.58,side
2023-10-02 01:29:22,0.0045,-0.97,0.2639,0.79,-1.95,0.12,-3.33,53.33,43.04,side
2023-10-02 01:29:22,0.0045,-0.97,0.266,0.92,-2.01,0.18,-2.58,53.23,42.04,side
2023-10-02 01:29:22,0.0035,-0.9701,0.2642,0.98,-1.95,0.24,-3.36,53.59,41.16,side
2023-10-02 01:29:22,0.0051,-0.9703,0.2645,0.98,-1.89,0.24,-2.93,54.15,42.09,side
2023-10-02 01:29:22,0.0048,-0.9706,0.2638,0.98,-1.95,0.24,-2.69,53.41,43.23,side
2023-10-02 01:29:22,0.0044,-0.97,0.2651,1.04,-1.83,0.37,-2.93,53.77,41.71,side
2023-10-02 01:29:22,0.0039,-0.97,0.2639,1.04,-1.89,0.18,-3.49,54.68,42.6,side
2023-10-02 01:29:22,0.0031,-0.9701,0.265,1.16,-1.95,0.12,-2.95,53.91,42.43,side
2023-10-02 01:29:22,0.0049,-0.9702,0.2655,0.92,-2.01,0.18,-2.51,53.55,43.6,side
2023-10-02 01:29:23,0.004,-0.9706,0.2645,1.1,-2.08,0.12,-3.21,53.91,42.74,side
2023-10-02 01:29:23,0.0039,-0.9701,0.2642,0.98,-1.95,0.18,-2.84,53.98,42.04,side
2023-10-02 01:29:23,0.005,-0.97,0.2644,0.85,-1.89,0.31,-2.89,53.47,41.48,side
2023-10-02 01:29:23,0.005,-0.9703,0.2642,1.04,-1.95,0.24,-2.97,54.0,42.58,side
2023-10-02 01:29:23,0.0048,-0.9705,0.2628,1.04,-1.77,0.24,-2.64,54.05,42.13,side
2023-10-02 01:29:23,0.0054,-0.9698,0.2638,0.98,-2.08,0.18,-3.05,53.53,42.77,side
2023-10-02 01:29:23,0.0048,-0.9705,0.2653,0.79,-2.01,0.24,-2.33,53.27,42.24,side
2023-10-02 01:29:23,0.0049,-0.9705,0.264,0.98,-1.89,0.24,-2.98,53.96,42.36,side
2023-10-02 01:29:23,0.0054,-0.9707,0.2633,1.04,-1.83,0.24,-2.64,53.09,44.38,side
2023-10-02 01:29:23,0.0045,-0.9695,0.2638,0.98,-2.14,0.31,-3.04,53.05,41.35,side
2023-10-02 01:29:24,0.0042,-0.9709,0.2634,1.04,-2.01,0.12,-3.02,53.7,42.16,side
2023-10-02 01:29:24,0.0054,-0.969,0.265,0.92,-1.89,0.06,-3.09,53.59,41.98,side
2023-10-02 01:29:24,0.004,-0.9698,0.2643,1.16,-1.95,0.31,-2.84,52.89,41.76,side
2023-10-02 01:29:24,0.0048,-0.9701,0.2659,0.73,-2.01,0.24,-2.71,53.65,42.33,side
2023-10-02 01:29:24,0.0046,-0.969,0.2634,0.98,-1.95,0.12,-3.06,54.36,42.21,side
2023-10-02 01:29:24,0.0054,-0.97,0.265,0.85,-1.95,0.24,-2.71,53.37,42.4,side
2023-10-02 01:29:24,0.0055,-0.9705,0.2646,0.92,-1.89,0.18,-2.47,53.56,43.18,side
2023-10-02 01:29:24,0.0044,-0.9703,0.2661,0.73,-2.01,0.31,-2.98,54.59,42.27,side
2023-10-02 01:29:24,0.0045,-0.9703,0.2646,0.85,-2.01,0.24,-3.0,53.75,42.3,side
2023-10-02 01:29:25,0.0043,-0.9705,0.264,0.92,-2.01,0.31,-2.94,53.52,42.71,side
2023-10-02 01:29:25,0.0034,-0.9713,0.264,0.92,-2.01,0.18,-3.22,54.19,43.04,side
2023-10-02 01:29:25,0.0052,-0.9698,0.2656,0.92,-2.08,0.18,-3.17,54.77,41.96,side
2023-10-02 01:29:25,0.0046,-0.9705,0.2643,1.1,-1.89,0.24,-2.47,53.99,42.65,side
2023-10-02 01:29:25,0.0037,-0.9703,0.2648,0.98,-1.71,0.18,-2.67,54.16,42.24,side
2023-10-02 01:29:25,0.0046,-0.9694,0.264,1.1,-2.08,0.24,-3.27,54.24,41.69,side
2023-10-02 01:29:25,0.0042,-0.9705,0.2643,0.85,-1.95,0.12,-3.09,54.35,42.64,side
2023-10-02 01:29:25,0.0039,-0.9706,0.2643,0.98,-1.89,0.31,-2.61,53.87,41.88,side
2023-10-02 01:29:25,0.0046,-0.9703,0.2646,1.04,-1.89,0.31,-2.45,54.25,41.1,side
2023-10-02 01:29:26,0.0056,-0.9701,0.2643,0.79,-1.95,0.18,-3.03,54.55,41.66,side
2023-10-02 01:29:26,0.0056,-0.97,0.264,0.98,-1.89,0.24,-2.54,53.7,42.1,side
2023-10-02 01:29:26,0.0045,-0.9709,0.2649,1.04,-1.83,0.24,-2.71,53.97,41.02,side
2023-10-02 01:29:26,0.0046,-0.972,0.2643,0.98,-1.83,0.37,-2.8,54.28,42.14,side
2023-10-02 01:29:26,0.0048,-0.9697,0.264,1.1,-1.95,0.12,-2.51,54.05,42.21,side
2023-10-02 01:29:26,0.004,-0.9713,0.2632,1.04,-1.65,0.31,-2.67,53.77,41.13,side
2023-10-02 01:29:26,0.005,-0.9697,0.265,0.92,-2.08,0.18,-3.34,54.55,41.55,side
2023-10-02 01:29:26,0.0051,-0.9716,0.2651,1.04,-1.89,0.06,-2.89,54.22,41.93,side
2023-10-02 01:29:26,0.0042,-0.9705,0.2643,0.85,-1.89,0.24,-2.98,53.27,41.89,side
2023-10-02 01:29:26,0.0054,-0.9698,0.2657,0.85,-2.01,0.18,-3.0,53.64,42.79,side
2023-10-02 01:29:27,0.0059,-0.9701,0.2657,0.85,-1.89,0.0,-2.92,54.15,42.02,side
2023-10-02 01:29:27,0.004,-0.9696,0.2645,0.92,-1.83,0.12,-2.6,53.47,42.22,side
2023-10-02 01:29:27,0.0045,-0.9692,0.2665,0.73,-2.01,0.06,-2.5,53.34,42.66,side
2023-10-02 01:29:27,0.0044,-0.9708,0.266,1.1,-1.95,0.24,-3.7,54.3,42.1,side
2023-10-02 01:29:27,0.0042,-0.9701,0.2639,0.92,-2.01,0.18,-3.2,54.04,42.75,side
2023-10-02 01:29:27,0.0049,-0.97,0.2635,0.85,-2.01,0.31,-2.59,53.05,42.24,side
2023-10-02 01:29:27,0.0057,-0.9701,0.2648,0.98,-2.01,0.24,-2.91,53.5,42.09,side
2023-10-02 01:29:27,0.0051,-0.9702,0.2637,0.92,-1.83,0.12,-3.92,54.37,42.97,side
2023-10-02 01:29:27,0.0055,-0.9703,0.2643,0.79,-2.01,0.24,-3.25,53.56,42.44,side
2023-10-02 01:29:28,0.0039,-0.9705,0.2629,1.1,-2.01,0.06,-3.23,53.87,43.37,side
2023-10-02 01:29:28,0.004,-0.9698,0.2632,0.85,-2.01,0.31,-3.3,53.69,41.56,side
2023-10-02 01:29:28,0.0044,-0.9703,0.2632,1.04,-1.95,0.12,-3.41,53.36,41.86,side
2023-10-02 01:29:28,0.0048,-0.9698,0.264,1.04,-1.89,0.24,-3.23,53.39,42.02,side
2023-10-02 01:29:28,0.0043,-0.9705,0.2632,0.98,-1.95,0.24,-3.09,53.43,42.93,side
2023-10-02 01:29:28,0.0056,-0.9701,0.2625,1.04,-2.08,0.24,-3.74,54.15,41.72,side
2023-10-02 01:29:28,0.0051,-0.9694,0.2635,0.98,-1.89,0.31,-3.45,53.45,42.0,side
2023-10-02 01:29:28,0.0049,-0.9717,0.2623,1.1,-1.89,0.31,-3.03,53.88,41.7,side
2023-10-02 01:29:28,0.0049,-0.97,0.2634,1.04,-2.08,0.24,-3.66,53.91,42.75,side
2023-10-02 01:29:29,0.0046,-0.9698,0.2633,1.1,-2.01,0.24,-2.86,53.55,42.4,side
2023-10-02 01:29:29,0.0048,-0.9702,0.2645,0.92,-2.08,0.24,-2.86,53.6,42.19,side
2023-10-02 01:29:29,0.0051,-0.9697,0.2635,1.1,-2.08,0.31,-3.6,54.04,42.04,side
2023-10-02 01:29:29,0.0049,-0.9692,0.266,0.85,-2.01,0.24,-2.97,53.92,41.76,side
2023-10-02 01:29:29,0.0051,-0.9705,0.2626,0.85,-2.08,0.31,-2.51,54.22,42.14,side
2023-10-02 01:29:29,0.0042,-0.9708,0.2638,0.85,-1.89,0.18,-2.77,53.92,41.96,side
2023-10-02 01:29:29,0.0049,-0.9696,0.2618,0.79,-2.14,0.12,-3.63,54.28,42.47,side
2023-10-02 01:29:29,0.0052,-0.9697,0.2642,1.1,-2.08,0.12,-2.83,53.7,41.36,side
2023-10-02 01:29:29,0.0046,-0.9702,0.2633,1.04,-1.95,0.06,-2.83,53.48,42.11,side
2023-10-02 01:29:29,0.0054,-0.9696,0.2637,0.79,-2.08,0.24,-2.87,54.2,42.7,side
2023-10-02 01:29:30,0.0042,-0.9698,0.265,1.04,-2.08,0.24,-2.55,53.64,41.26,side
2023-10-02 01:29:30,0.0042,-0.9706,0.2644,0.85,-2.01,0.18,-3.15,52.82,41.67,side
2023-10-02 01:29:30,0.0055,-0.9708,0.2637,0.98,-2.01,0.12,-3.36,54.53,42.4,side
2023-10-02 01:29:30,0.0042,-0.9702,0.2653,0.98,-2.01,0.18,-3.0,54.47,40.83,side
2023-10-02 01:29:30,0.0039,-0.97,0.2634,1.04,-1.83,0.12,-3.03,53.69,42.71,side
2023-10-02 01:29:30,0.0048,-0.9706,0.2637,0.98,-2.01,0.18,-3.04,54.02,42.59,side
2023-10-02 01:29:30,0.0052,-0.9692,0.2635,0.98,-2.01,0.18,-3.05,54.15,41.32,side
2023-10-02 01:29:30,0.0056,-0.9697,0.2642,0.85,-2.01,0.06,-2.8,53.82,42.29,side
2023-10-02 01:29:30,0.0054,-0.9698,0.2649,0.98,-1.89,0.24,-2.59,52.84,41.87,side
2023-10-02 01:29:31,0.0039,-0.9698,0.2642,0.98,-1.89,0.24,-3.54,54.27,41.58,side
2023-10-02 01:29:31,0.0051,-0.9697,0.2644,0.85,-1.89,0.24,-3.05,54.58,41.97,side
2023-10-02 01:29:31,0.0048,-0.9701,0.2637,0.73,-1.89,0.06,-2.67,53.1,42.18,side
2023-10-02 01:29:31,0.0043,-0.9697,0.2662,0.98,-2.01,0.12,-2.89,53.81,41.88,side
2023-10-02 01:29:31,0.0049,-0.9697,0.2626,0.98,-2.08,0.06,-2.89,54.02,42.88,side
2023-10-02 01:29:31,0.0048,-0.9689,0.2645,0.92,-1.95,0.18,-3.09,53.59,43.43,side
2023-10-02 01:29:31,0.0067,-0.9697,0.264,0.85,-1.83,0.06,-3.42,53.76,41.89,side
2023-10-02 01:29:31,0.0054,-0.9696,0.264,0.98,-1.89,0.24,-3.37,54.54,40.67,side
2023-10-02 01:29:31,0.0038,-0.9701,0.2642,0.85,-1.89,0.12,-2.76,53.97,42.55,side
2023-10-02 01:29:32,0.0045,-0.9703,0.264,0.79,-1.89,0.31,-2.73,53.11,42.42,side
2023-10-02 01:29:32,0.0049,-0.9698,0.2639,0.73,-1.95,0.12,-3.14,54.04,41.85,side
2023-10-02 01:29:32,0.0044,-0.9702,0.2645,1.04,-1.95,0.18,-3.14,53.52,42.19,side
2023-10-02 01:29:32,0.0048,-0.9691,0.2635,0.79,-1.89,0.12,-2.92,53.56,42.41,side
2023-10-02 01:29:32,0.0049,-0.9697,0.2643,0.98,-2.01,0.24,-3.14,53.61,42.3,side
2023-10-02 01:29:32,0.0045,-0.9703,0.2632,0.85,-1.89,0.24,-3.06,53.87,41.53,side
2023-10-02 01:29:32,0.0048,-0.9701,0.2637,0.98,-1.89,0.18,-2.97,53.55,43.08,side
2023-10-02 01:29:32,0.0048,-0.9696,0.2657,0.92,-1.89,0.24,-2.42,53.64,42.15,side
2023-10-02 01:29:32,0.0042,-0.9698,0.2649,0.92,-1.89,0.18,-3.3,53.61,41.71,side
2023-10-02 01:29:32,0.004,-0.9697,0.2646,0.92,-1.89,0.24,-3.25,53.33,43.33,side
2023-10-02 01:29:33,0.0046,-0.9701,0.2643,0.92,-1.95,0.12,-2.61,53.31,42.64,side
2023-10-02 01:29:33,0.0051,-0.9701,0.2645,0.92,-1.71,0.31,-3.48,53.81,41.76,side
2023-10-02 01:29:33,0.0038,-0.9707,0.2634,0.92,-2.08,0.24,-3.16,54.39,41.76,side
2023-10-02 01:29:33,0.0052,-0.9697,0.2664,0.85,-1.83,0.31,-2.89,53.37,41.88,side
2023-10-02 01:29:33,0.0043,-0.9696,0.2646,1.04,-1.95,0.24,-3.02,52.99,42.47,side
2023-10-02 01:29:33,0.0046,-0.9714,0.2642,0.73,-2.01,0.06,-3.11,53.59,41.02,side
2023-10-02 01:29:33,0.0048,-0.9697,0.2639,0.98,-1.95,0.37,-3.3,53.31,41.33,side
2023-10-02 01:29:33,0.0018,-0.9709,0.2646,0.92,-1.89,0.24,-2.72,52.58,42.79,side
2023-10-02 01:29:33,0.0039,-0.9697,0.2644,0.98,-1.89,0.18,-3.06,53.6,42.25,side
2023-10-02 01:29:34,0.0046,-0.9712,0.2643,1.1,-2.01,0.24,-3.37,53.28,41.3,side
2023-10-02 01:29:34,0.0056,-0.969,0.2645,0.98,-2.08,0.18,-2.4,52.72,42.04,side
2023-10-02 01:29:34,0.0052,-0.9696,0.264,1.04,-1.95,0.18,-3.33,53.49,42.05,side
2023-10-02 01:29:34,0.0042,-0.9694,0.2651,0.92,-1.77,0.37,-3.76,54.1,41.74,side
2023-10-02 01:29:34,0.0048,-0.9692,0.2644,0.85,-1.77,0.12,-2.71,53.78,42.27,side
2023-10-02 01:29:34,0.0054,-0.97,0.2645,1.04,-1.89,0.18,-2.73,53.45,41.58,side
2023-10-02 01:29:34,0.0042,-0.9702,0.2639,0.67,-2.08,0.12,-2.47,53.91,41.75,side
2023-10-02 01:29:34,0.0056,-0.9702,0.2651,0.92,-1.95,0.24,-3.2,54.03,41.98,side
2023-10-02 01:29:34,0.005,-0.9696,0.2651,0.92,-1.83,0.31,-2.99,53.36,42.19,side
2023-10-02 01:29:35,0.0045,-0.9706,0.2635,0.98,-1.89,0.31,-2.66,53.76,42.25,side
2023-10-02 01:29:35,0.0059,-0.9702,0.2651,0.79,-1.95,0.31,-3.78,53.98,41.83,side
2023-10-02 01:29:35,0.0039,-0.9695,0.2646,0.73,-1.77,0.31,-3.0,54.17,41.52,side
2023-10-02 01:29:35,0.0039,-0.9691,0.2648,0.85,-1.65,0.24,-2.86,53.39,42.88,side
2023-10-02 01:29:35,0.0042,-0.969,0.2646,1.16,-1.95,0.06,-2.81,53.89,41.04,side
2023-10-02 01:29:35,0.0042,-0.9691,0.2648,0.92,-1.77,0.12,-3.19,53.92,41.67,side
2023-10-02 01:29:35,0.0048,-0.9706,0.2639,0.98,-1.71,0.24,-2.62,53.47,41.48,side
2023-10-02 01:29:35,0.0031,-0.9691,0.2649,0.98,-1.77,0.24,-3.05,54.32,42.57,side
2023-10-02 01:29:35,0.0046,-0.9706,0.2639,1.1,-1.89,0.31,-3.63,54.35,41.19,side
2023-10-02 01:29:35,0.0049,-0.9702,0.2659,0.98,-1.77,0.24,-2.94,53.76,41.2,side
2023-10-02 01:29:36,0.0043,-0.9698,0.2644,1.04,-1.77,0.12,-2.51,53.6,41.61,side
2023-10-02 01:29:36,0.006,-0.9698,0.265,1.16,-1.71,0.31,-3.19,54.0,42.21,side
2023-10-02 01:29:36,0.0043,-0.9705,0.2653,0.85,-1.89,0.37,-3.31,53.49,41.25,side
2023-10-02 01:29:36,0.0049,-0.9698,0.2649,0.92,-1.83,0.24,-2.5,53.53,41.97,side
2023-10-02 01:29:36,0.006,-0.9702,0.265,0.92,-1.95,0.24,-3.2,54.03,41.67,side
2023-10-02 01:29:36,0.0046,-0.9691,0.2649,0.85,-1.89,0.18,-3.15,53.56,40.83,side
2023-10-02 01:29:36,0.005,-0.9711,0.2645,1.04,-1.95,0.18,-3.11,53.6,41.93,side
2023-10-02 01:29:36,0.0049,-0.9685,0.266,0.79,-1.89,0.18,-2.5,53.97,41.15,side
2023-10-02 01:29:36,0.0044,-0.9698,0.2649,0.79,-1.77,0.24,-2.73,54.1,41.47,side
2023-10-02 01:29:37,0.0039,-0.9694,0.2651,0.79,-1.83,0.31,-2.75,53.12,41.92,side
2023-10-02 01:29:37,0.0056,-0.9692,0.2644,0.73,-1.77,0.18,-2.53,53.28,42.26,side
2023-10-02 01:29:37,0.0043,-0.9698,0.2653,0.92,-1.77,0.0,-2.91,54.19,41.64,side
2023-10-02 01:29:37,0.0049,-0.9701,0.2639,0.85,-1.77,0.18,-2.89,54.09,42.14,side
2023-10-02 01:29:37,0.0059,-0.9702,0.2648,0.92,-1.77,0.18,-2.56,53.5,41.58,side
2023-10-02 01:29:37,0.0049,-0.9694,0.2643,0.92,-2.08,0.12,-2.82,53.44,40.97,side
2023-10-02 01:29:37,0.0052,-0.9706,0.2632,0.92,-1.89,0.18,-3.23,54.55,41.61,side
2023-10-02 01:29:37,0.0046,-0.9695,0.2654,0.92,-1.77,0.24,-2.88,53.74,42.07,side
2023-10-02 01:29:37,0.0056,-0.9697,0.2629,0.92,-1.59,0.18,-2.72,53.58,41.42,side
2023-10-02 01:29:38,0.0044,-0.9718,0.2628,0.98,-1.83,0.06,-2.67,53.94,41.33,side
2023-10-02 01:29:38,0.0043,-0.9698,0.2682,1.28,-1.95,0.37,-2.71,53.8,41.65,side
2023-10-02 01:29:38,0.0057,-0.9697,0.2638,1.1,-1.83,0.24,-2.44,53.25,42.42,side
2023-10-02 01:29:38,0.0032,-0.9714,0.2633,1.04,-2.08,0.12,-2.91,53.81,41.92,side
2023-10-02 01:29:38,0.0044,-0.9703,0.2646,1.04,-1.89,0.18,-3.03,54.17,42.1,side
2023-10-02 01:29:38,0.0051,-0.9698,0.2666,1.1,-1.95,0.18,-2.81,53.63,42.11,side
2023-10-02 01:29:38,0.0046,-0.9701,0.2642,1.04,-1.95,0.24,-2.11,53.3,41.36,side
2023-10-02 01:29:38,0.0051,-0.9705,0.2604,1.1,-2.01,0.31,-2.94,54.66,41.64,side
2023-10-02 01:29:38,0.0052,-0.9706,0.2655,0.98,-1.95,0.31,-3.28,53.67,42.86,side
2023-10-02 01:29:38,0.002,-0.9705,0.2625,1.04,-1.89,0.24,-2.8,53.6,41.96,side
2023-10-02 01:29:39,0.0045,-0.9674,0.2755,0.49,-1.83,0.49,-3.19,53.99,41.97,side
2023-10-02 01:29:39,0.0082,-0.9764,0.2543,0.98,-1.95,-0.24,-3.21,53.77,41.71,side
2023-10-02 01:29:39,0.0056,-0.9703,0.2766,0.79,-2.01,0.37,-2.89,52.84,41.6,side
2023-10-02 01:29:39,0.0071,-0.9712,0.2649,1.04,-1.83,-0.06,-3.54,53.87,42.25,side
2023-10-02 01:29:39,0.0021,-0.9733,0.2601,0.73,-1.89,0.43,-3.39,54.15,41.13,side
2023-10-02 01:29:39,0.0061,-0.967,0.2729,0.85,-1.95,0.18,-2.53,53.47,43.04,side
2023-10-02 01:29:39,0.0045,-0.9716,0.2557,0.92,-2.08,0.24,-2.4,53.0,42.0,side
2023-10-02 01:29:39,0.0063,-0.9673,0.2729,0.92,-1.95,0.31,-3.42,54.13,41.53,side
2023-10-02 01:29:39,0.0037,-0.9727,0.2592,0.92,-1.77,0.12,-3.05,53.17,42.83,side
2023-10-02 01:29:40,0.0052,-0.9677,0.271,0.98,-1.95,0.31,-2.73,53.32,40.59,side
2023-10-02 01:29:40,0.0049,-0.9701,0.2625,0.98,-1.71,0.24,-2.71,53.67,41.08,side
2023-10-02 01:29:40,0.0048,-0.9709,0.2665,0.92,-1.95,0.37,-3.5,54.19,41.22,side
2023-10-02 01:29:40,0.0043,-0.9719,0.2664,1.1,-1.95,0.0,-3.04,53.72,42.18,side
2023-10-02 01:29:40,0.0048,-0.9395,0.2635,1.1,-2.01,0.31,-2.14,53.36,41.58,side
2023-10-02 01:29:40,0.0059,-0.9691,0.2666,0.98,-1.89,0.18,-2.67,54.26,41.74,side
2023-10-02 01:29:40,0.0043,-0.9716,0.2635,1.04,-1.89,0.24,-2.71,53.86,41.47,side
2023-10-02 01:29:40,0.0056,-0.9686,0.2667,0.98,-1.95,0.18,-2.82,53.37,42.18,side
2023-10-02 01:29:40,0.0038,-0.9701,0.2639,0.92,-1.95,0.24,-2.65,54.0,40.93,side
2023-10-02 01:29:40,0.0059,-0.9696,0.2651,1.1,-1.89,0.24,-3.21,54.21,41.65,side
2023-10-02 01:29:41,0.005,-0.969,0.2661,0.92,-1.77,0.31,-2.29,53.43,41.8,side
2023-10-02 01:29:41,0.0052,-0.97,0.2635,0.92,-1.83,0.18,-2.25,53.39,43.2,side
2023-10-02 01:29:41,0.0048,-0.969,0.2659,0.98,-1.83,0.24,-3.3,54.19,41.25,side
2023-10-02 01:29:41,0.0052,-0.9714,0.2623,0.98,-1.71,0.37,-2.6,53.22,42.71,side
2023-10-02 01:29:41,0.0037,-0.9691,0.2659,0.85,-1.77,0.18,-2.23,53.38,41.86,side
2023-10-02 01:29:41,0.007,-0.9698,0.2637,0.98,-1.95,0.06,-2.94,54.33,42.16,side
2023-10-02 01:29:41,0.0045,-0.9703,0.2657,1.04,-1.83,0.18,-2.89,53.83,42.48,side
2023-10-02 01:29:41,0.0045,-0.9713,0.2654,0.92,-1.83,0.18,-2.66,53.8,41.87,side
2023-10-02 01:29:41,0.0056,-0.9688,0.266,0.85,-1.89,0.31,-2.91,53.6,40.92,side
2023-10-02 01:29:42,0.0044,-0.97,0.2666,0.85,-1.83,0.24,-3.5,54.91,41.39,side
2023-10-02 01:29:42,0.0046,-0.969,0.2642,0.79,-1.89,0.31,-2.98,53.99,40.99,side
2023-10-02 01:29:42,0.0056,-0.9697,0.2661,0.85,-1.71,0.12,-2.38,52.84,42.24,side
2023-10-02 01:29:42,0.0051,-0.9709,0.2639,0.98,-1.77,0.12,-3.43,54.1,41.98,side
2023-10-02 01:29:42,0.0051,-0.9697,0.2668,0.79,-1.83,0.18,-3.1,54.19,42.05,side
2023-10-02 01:29:42,0.005,-0.9694,0.2656,0.85,-1.77,0.31,-2.7,53.82,42.35,side
2023-10-02 01:29:42,0.004,-0.9694,0.2649,1.04,-1.83,0.24,-3.04,54.38,41.64,side
2023-10-02 01:29:42,0.0038,-0.9702,0.2655,0.79,-1.83,0.24,-3.61,54.86,42.76,side
2023-10-02 01:29:42,0.0046,-0.9695,0.2654,1.04,-1.71,0.12,-2.73,54.15,42.19,side
2023-10-02 01:29:43,0.0055,-0.9692,0.2665,0.98,-1.83,0.24,-2.45,54.3,42.96,side
2023-10-02 01:29:43,0.005,-0.969,0.2638,0.98,-1.77,0.31,-2.78,54.33,42.37,side
2023-10-02 01:29:43,0.0052,-0.9706,0.2656,0.98,-1.71,0.24,-3.54,53.86,42.41,side
2023-10-02 01:29:43,0.0042,-0.9703,0.2639,0.92,-1.77,0.12,-2.82,54.0,41.98,side
2023-10-02 01:29:43,0.005,-0.9701,0.2649,0.98,-2.08,0.24,-2.88,53.71,41.71,side
2023-10-02 01:29:43,0.0042,-0.9736,0.2585,1.04,-1.71,0.18,-2.88,54.48,41.83,side
2023-10-02 01:29:43,0.0016,-0.9709,0.2592,1.04,-1.71,0.31,-2.72,54.1,42.05,side
2023-10-02 01:29:43,0.0087,-0.9667,0.2672,1.04,-2.01,0.31,-2.51,54.43,42.74,side
2023-10-02 01:29:43,0.0035,-0.9719,0.2605,1.04,-1.83,0.18,-3.43,54.55,42.42,side
2023-10-02 01:29:43,0.0065,-0.9691,0.2667,0.92,-1.95,0.37,-2.64,53.94,42.58,side
2023-10-02 01:29:44,0.0042,-0.97,0.2617,1.04,-1.71,0.24,-2.71,53.78,42.96,side
2023-10-02 01:29:44,0.0038,-0.9694,0.2668,1.04,-1.83,0.12,-2.81,53.92,42.04,side
2023-10-02 01:29:44,0.0099,-0.9718,0.259,0.73,-1.46,0.12,-2.86,54.14,42.65,side
2023-10-02 01:29:44,-0.0001,-0.9711,0.266,0.85,-2.01,0.18,-2.78,53.58,43.1,side
2023-10-02 01:29:44,0.0143,-0.9708,0.267,1.1,-1.77,-0.06,-2.89,53.58,42.65,side
2023-10-02 01:29:44,0.001,-0.9701,0.2595,0.79,-1.95,0.43,-3.37,54.33,41.87,side
2023-10-02 01:29:44,0.0055,-0.9644,0.2769,1.1,-1.83,0.06,-2.6,53.69,41.81,side
2023-10-02 01:29:44,0.006,-0.9707,0.2561,1.04,-1.89,0.18,-2.49,53.33,41.22,side
2023-10-02 01:29:44,0.0039,-0.9679,0.2708,0.98,-1.77,0.43,-2.95,53.99,42.53,side
2023-10-02 01:29:45,0.0049,-0.973,0.2572,0.98,-1.77,0.12,-3.2,54.26,41.96,side
2023-10-02 01:29:45,0.0046,-0.9692,0.2659,1.04,-2.08,0.31,-2.76,53.49,41.17,side
2023-10-02 01:29:45,0.0049,-0.97,0.2631,1.04,-1.65,0.24,-2.98,53.74,42.07,side
2023-10-02 01:29:45,0.0043,-0.9718,0.2629,1.1,-1.95,0.18,-3.33,54.21,41.39,side
2023-10-02 01:29:45,0.0056,-0.9703,0.2656,1.04,-1.89,0.12,-2.56,53.82,43.42,side
2023-10-02 01:29:45,0.0042,-0.9713,0.2612,0.92,-1.83,0.37,-2.69,53.12,42.19,side
2023-10-02 01:29:45,0.0052,-0.9701,0.2655,0.85,-1.77,0.24,-2.51,54.31,41.81,side
2023-10-02 01:29:45,0.0044,-0.9712,0.2621,1.04,-1.77,0.12,-3.25,53.97,41.89,side
2023-10-02 01:29:45,0.0057,-0.9697,0.2643,0.98,-1.95,0.24,-2.43,53.0,41.76,side
2023-10-02 01:29:46,0.0034,-0.9703,0.2625,1.04,-1.95,0.24,-2.73,53.78,41.11,side
2023-10-02 01:29:46,0.0054,-0.9702,0.2649,1.04,-2.01,0.24,-3.25,53.69,42.58,side
2023-10-02 01:29:46,0.0037,-0.9706,0.2634,0.98,-1.89,0.18,-2.98,53.38,42.15,side
2023-10-02 01:29:46,0.0049,-0.9709,0.2633,0.92,-1.77,0.31,-2.69,54.19,42.1,side
2023-10-02 01:29:46,0.0046,-0.9701,0.2628,1.04,-1.89,0.31,-3.32,54.55,42.18,side
2023-10-02 01:29:46,0.0044,-0.9705,0.2638,0.98,-1.83,0.24,-2.69,54.11,41.58,side
2023-10-02 01:29:46,0.0055,-0.9684,0.2645,0.92,-1.95,0.18,-2.64,52.97,41.85,side
2023-10-02 01:29:46,0.0032,-0.9707,0.2627,0.92,-2.01,0.24,-2.47,53.78,41.38,side
2023-10-02 01:29:46,0.0054,-0.97,0.2649,0.67,-1.89,0.18,-3.39,54.21,41.06,side
2023-10-02 01:29:46,0.0054,-0.9703,0.2631,0.85,-1.95,0.31,-2.43,53.5,42.14,side
2023-10-02 01:29:47,0.005,-0.9708,0.2645,0.92,-1.89,0.24,-3.2,53.89,41.6,side
2023-10-02 01:29:47,0.0044,-0.9706,0.2634,0.85,-2.14,0.12,-3.32,54.7,41.49,side
2023-10-02 01:29:47,0.0042,-0.9703,0.2653,0.73,-1.89,0.31,-2.76,53.89,41.83,side
2023-10-02 01:29:47,0.0063,-0.9702,0.265,1.1,-1.83,0.37,-1.99,53.33,42.25,side
2023-10-02 01:29:47,0.0042,-0.9703,0.2649,1.1,-1.83,0.31,-2.37,54.39,41.91,side
2023-10-02 01:29:47,0.0045,-0.9702,0.2642,1.1,-1.71,0.24,-3.52,54.46,42.02,side
2023-10-02 01:29:47,0.004,-0.9691,0.2654,1.1,-1.95,0.37,-2.92,53.56,42.08,side
2023-10-02 01:29:47,0.0055,-0.9696,0.2635,1.04,-1.77,0.18,-2.86,54.08,42.32,side
2023-10-02 01:29:47,0.0021,-0.9697,0.2653,0.98,-1.95,0.18,-3.53,54.47,41.28,side
2023-10-02 01:29:48,0.0061,-0.9691,0.2655,0.98,-2.01,0.18,-3.05,53.71,41.61,side
2023-10-02 01:29:48,0.0018,-0.9706,0.2637,0.92,-1.83,0.12,-2.8,53.55,41.32,side
2023-10-02 01:29:48,0.0052,-0.9695,0.2643,1.16,-2.08,0.24,-2.87,54.15,41.39,side
2023-10-02 01:29:48,0.0049,-0.9694,0.2643,1.16,-2.01,0.24,-3.37,54.61,42.8,side
2023-10-02 01:29:48,0.0038,-0.9714,0.2622,1.04,-1.89,0.12,-2.93,53.87,42.42,side
2023-10-02 01:29:48,0.0063,-0.9703,0.2651,1.16,-2.08,0.24,-3.06,53.67,41.61,side
2023-10-02 01:29:48,0.0018,-0.974,0.2573,1.28,-1.77,0.12,-3.33,54.44,42.08,side
2023-10-02 01:29:48,0.0024,-0.9724,0.2598,1.1,-1.89,0.31,-3.04,54.2,42.54,side
2023-10-02 01:29:48,0.004,-0.9677,0.27,1.04,-1.77,0.12,-3.19,53.72,42.58,side
2023-10-02 01:29:49,0.0033,-0.9729,0.2583,0.92,-1.65,0.24,-3.75,54.36,41.52,side
2023-10-02 01:29:49,0.0035,-0.9683,0.2692,1.1,-1.95,0.31,-3.02,54.04,42.69,side
2023-10-02 01:29:49,0.0063,-0.9717,0.26,0.92,-1.71,0.24,-2.59,53.71,41.83,side
2023-10-02 01:29:49,0.0044,-0.97,0.2661,0.92,-1.77,0.31,-2.98,54.27,41.58,side
2023-10-02 01:29:49,0.0051,-0.9679,0.2701,0.73,-1.71,0.12,-3.11,53.8,41.88,side
2023-10-02 01:29:49,0.0038,-0.9722,0.2592,0.92,-1.83,0.12,-2.81,53.61,42.07,side
2023-10-02 01:29:49,0.0066,-0.9674,0.27,0.67,-1.77,0.24,-2.87,53.74,42.07,side
2023-10-02 01:29:49,0.0038,-0.9714,0.2606,0.98,-1.71,0.37,-3.39,54.63,41.98,side
2023-10-02 01:29:49,0.0043,-0.9689,0.2659,1.1,-1.77,0.24,-3.06,53.54,41.86,side
2023-10-02 01:29:49,0.0035,-0.9714,0.2625,1.04,-1.77,0.18,-3.37,53.2,43.05,side
2023-10-02 01:29:50,0.0038,-0.9677,0.2665,0.79,-1.71,0.37,-3.43,54.39,42.68,side
2023-10-02 01:29:50,0.0044,-0.9703,0.262,0.92,-1.77,0.12,-2.94,53.76,43.1,side
2023-10-02 01:29:50,0.0061,-0.9679,0.2679,0.85,-1.71,0.37,-2.78,53.38,43.24,side
2023-10-02 01:29:50,0.0021,-0.9709,0.2633,1.04,-1.83,0.18,-2.99,53.59,42.26,side
2023-10-02 01:29:50,0.0061,-0.9709,0.264,0.79,-1.95,0.24,-3.21,53.92,42.58,side
2023-10-02 01:29:50,0.0071,-0.9707,0.2622,1.1,-1.83,0.24,-3.17,53.25,41.6,side
2023-10-02 01:29:50,0.0012,-0.9714,0.2634,0.98,-1.77,0.18,-2.55,52.91,42.44,side
2023-10-02 01:29:50,0.0072,-0.9698,0.2615,0.92,-1.77,0.24,-3.31,53.88,42.25,side
2023-10-02 01:29:50,0.0031,-0.9696,0.2686,0.98,-1.83,0.31,-2.93,53.75,42.18,side
2023-10-02 01:29:51,0.0032,-0.9701,0.2653,0.79,-1.4,0.31,-2.82,53.22,42.32,side
2023-10-02 01:29:51,0.0059,-0.9698,0.2646,0.85,-1.89,0.43,-3.19,53.31,40.8,side
2023-10-02 01:29:51,0.0043,-0.9695,0.2631,0.92,-1.71,0.24,-3.54,53.81,41.99,side
2023-10-02 01:29:51,0.0034,-0.9698,0.2654,0.92,-1.83,0.18,-2.67,53.06,42.25,side
2023-10-02 01:29:51,0.0077,-0.9688,0.2651,0.98,-1.83,0.37,-2.55,53.44,41.39,side
2023-10-02 01:29:51,0.0007,-0.9708,0.2617,1.1,-1.71,0.12,-3.28,54.58,42.42,side
2023-10-02 01:29:51,0.0081,-0.9675,0.2635,0.98,-1.83,0.31,-3.09,54.16,42.9,side
2023-10-02 01:29:51,0.0038,-0.9705,0.2646,0.98,-1.71,0.31,-2.86,53.69,41.28,side
2023-10-02 01:29:51,0.0031,-0.9714,0.2627,0.92,-1.89,0.12,-3.32,53.83,42.24,side
2023-10-02 01:29:52,0.007,-0.9692,0.2643,0.92,-1.89,0.18,-3.37,53.87,42.35,side
2023-10-02 01:29:52,0.0039,-0.9695,0.2632,0.79,-1.71,0.18,-3.16,53.27,41.74,side
2023-10-02 01:29:52,0.0037,-0.9711,0.2635,0.92,-1.83,0.24,-2.66,53.66,42.44,side
2023-10-02 01:29:52,0.0023,-0.9718,0.262,0.79,-1.65,0.24,-3.41,54.81,42.21,side
2023-10-02 01:29:52,0.0054,-0.9696,0.2653,0.92,-1.83,0.24,-2.93,53.17,42.31,side
2023-10-02 01:29:52,0.006,-0.9711,0.2639,0.98,-1.77,0.18,-2.6,53.2,43.05,side
2023-10-02 01:29:52,0.0061,-0.9686,0.2687,0.85,-1.77,0.24,-3.14,54.0,41.43,side
2023-10-02 01:29:52,0.0035,-0.9725,0.2578,1.04,-1.83,0.37,-3.21,54.08,41.61,side
2023-10-02 01:29:52,0.0073,-0.968,0.271,0.79,-1.83,0.31,-2.48,53.66,42.38,side
2023-10-02 01:29:52,0.0021,-0.973,0.2588,0.85,-1.77,0.12,-2.83,54.06,41.21,side
2023-10-02 01:29:53,0.0049,-0.9712,0.2642,1.04,-1.77,0.37,-3.02,53.82,43.08,side
2023-10-02 01:29:53,0.0024,-0.9691,0.2693,0.85,-1.59,0.24,-3.02,53.41,42.11,side
2023-10-02 01:29:53,0.0095,-0.9724,0.2589,0.98,-1.77,0.49,-2.29,52.93,41.91,side
2023-10-02 01:29:53,0.0042,-0.9689,0.2701,0.92,-2.01,0.31,-2.87,53.96,42.6,side
2023-10-02 01:29:53,0.0042,-0.9722,0.2595,0.85,-1.77,0.24,-3.82,54.52,42.16,side
2023-10-02 01:29:53,0.0057,-0.969,0.2688,0.92,-2.01,0.18,-2.72,53.45,42.15,side
2023-10-02 01:29:53,0.0049,-0.9708,0.2646,0.92,-1.71,0.24,-2.84,53.97,42.92,side
2023-10-02 01:29:53,0.0042,-0.9708,0.2632,1.1,-1.95,0.12,-3.05,54.35,42.2,side
2023-10-02 01:29:53,0.0034,-0.9684,0.2634,0.98,-1.89,0.12,-2.72,53.53,42.03,side
2023-10-02 01:29:54,0.0057,-0.9675,0.2689,0.92,-1.89,0.24,-3.36,53.56,41.25,side
2023-10-02 01:29:54,0.0046,-0.9707,0.262,1.1,-1.71,0.18,-3.27,54.1,42.02,side
2023-10-02 01:29:54,0.0051,-0.9698,0.2653,0.92,-1.95,0.31,-3.78,53.15,41.69,side
2023-10-02 01:29:54,0.0048,-0.9711,0.2659,0.98,-2.08,0.18,-2.78,53.15,42.92,side
2023-10-02 01:29:54,0.0018,-0.9712,0.2628,0.73,-1.65,0.12,-2.62,54.5,42.59,side
2023-10-02 01:29:54,0.0065,-0.968,0.2712,0.98,-1.77,0.18,-3.09,54.41,43.03,side
2023-10-02 01:29:54,0.0051,-0.9728,0.2603,0.73,-1.77,0.37,-2.53,53.22,41.82,side
2023-10-02 01:29:54,0.0078,-0.9691,0.2667,0.92,-1.95,0.24,-2.73,54.39,41.93,side
2023-10-02 01:29:54,0.0015,-0.9697,0.2671,0.79,-1.65,0.31,-3.27,54.02,41.81,side
2023-10-02 01:29:55,0.005,-0.9724,0.2592,1.04,-1.77,0.06,-3.0,53.53,42.82,side
2023-10-02 01:29:55,0.004,-0.9688,0.2698,0.79,-1.71,0.37,-2.19,53.56,42.42,side
2023-10-02 01:29:55,0.0067,-0.9719,0.2621,1.1,-1.83,0.18,-2.95,54.35,42.11,side
2023-10-02 01:29:55,0.0011,-0.9705,0.2632,0.92,-1.71,0.31,-3.48,54.36,42.49,side
2023-10-02 01:29:55,0.0055,-0.9696,0.2657,1.1,-1.77,0.12,-3.09,53.34,42.99,side
2023-10-02 01:29:55,0.0056,-0.9707,0.2637,1.04,-1.77,0.18,-2.86,54.19,43.21,side
2023-10-02 01:29:55,0.0051,-0.9734,0.2594,0.98,-1.65,0.18,-2.94,54.26,41.05,side
2023-10-02 01:29:55,0.0046,-0.9717,0.2625,1.1,-1.83,0.24,-2.77,53.66,41.41,side
2023-10-02 01:29:55,0.0046,-0.9688,0.2679,1.04,-1.89,0.18,-2.45,53.69,42.11,side
2023-10-02 01:29:55,0.0029,-0.9692,0.2655,1.1,-1.83,0.31,-3.19,54.38,42.36,side
2023-10-02 01:29:56,0.0039,-0.9706,0.2666,0.98,-1.71,0.24,-3.04,54.53,42.1,side
2023-10-02 01:29:56,0.0045,-0.9717,0.264,0.85,-1.77,0.24,-2.71,53.56,41.76,side
2023-10-02 01:29:56,0.0071,-0.9675,0.2704,1.04,-1.77,0.18,-2.93,53.92,42.49,side
2023-10-02 01:29:56,0.0012,-0.9736,0.2616,1.1,-1.77,0.37,-2.81,53.67,41.48,side
2023-10-02 01:29:56,0.0067,-0.9688,0.2695,1.04,-1.83,0.24,-2.89,54.04,42.58,side
2023-10-02 01:29:56,0.0039,-0.9712,0.261,0.98,-1.83,0.18,-2.66,53.87,42.8,side
2023-10-02 01:29:56,0.005,-0.9684,0.2665,0.92,-1.95,0.31,-2.91,54.3,42.36,side
2023-10-02 01:29:56,0.005,-0.9707,0.2629,0.92,-1.77,0.18,-2.58,53.63,41.97,side
2023-10-02 01:29:56,0.0061,-0.9692,0.2668,0.85,-1.77,0.24,-2.56,53.74,42.11,side
2023-10-02 01:29:57,0.0049,-0.9708,0.2632,0.98,-1.89,0.24,-3.0,54.43,41.86,side
2023-10-02 01:29:57,0.0044,-0.9695,0.2661,0.79,-1.71,0.18,-2.81,54.15,41.81,side
2023-10-02 01:29:57,0.0039,-0.9717,0.2631,0.98,-1.77,0.31,-2.48,53.67,42.04,side
2023-10-02 01:29:57,0.0055,-0.9685,0.2677,0.92,-1.89,0.12,-2.45,53.41,42.52,side
2023-10-02 01:29:57,0.0044,-0.9708,0.2623,0.98,-1.65,0.24,-3.34,55.16,41.46,side
2023-10-02 01:29:57,0.0054,-0.9697,0.2682,0.98,-1.65,0.18,-2.77,54.06,42.03,side
2023-10-02 01:29:57,0.0052,-0.9717,0.2621,0.98,-1.89,0.37,-2.86,53.48,41.56,side
2023-10-02 01:29:57,0.0045,-0.9697,0.2677,0.98,-1.83,0.24,-3.32,54.09,42.29,side
2023-10-02 01:29:57,0.0054,-0.9701,0.2645,1.04,-1.83,0.24,-3.52,53.83,42.36,side
2023-10-02 01:29:58,0.0044,-0.9701,0.2675,0.92,-1.77,0.37,-2.94,53.45,42.08,side
2023-10-02 01:29:58,0.0054,-0.9708,0.2635,0.98,-1.89,0.18,-2.99,54.14,41.32,side
2023-10-02 01:29:58,0.0066,-0.9697,0.2646,1.1,-2.01,0.31,-3.08,53.92,42.02,side
2023-10-02 01:29:58,0.0045,-0.9703,0.2642,0.92,-1.95,0.31,-2.49,53.8,42.94,side
2023-10-02 01:29:58,0.0054,-0.9707,0.2644,1.04,-1.83,0.31,-1.95,53.89,43.43,side
2023-10-02 01:29:58,0.0062,-0.9701,0.2644,0.98,-1.77,0.31,-3.33,54.31,42.85,side
2023-10-02 01:29:58,0.0044,-0.9709,0.2639,0.98,-1.83,0.24,-3.69,54.09,41.87,side
2023-10-02 01:29:58,0.0032,-0.9703,0.2648,0.98,-1.89,0.18,-2.53,54.15,42.83,side
2023-10-02 01:29:58,0.0046,-0.9711,0.2632,0.98,-1.77,0.24,-3.21,54.17,41.91,side
2023-10-02 01:29:58,0.0048,-0.9694,0.2665,0.98,-1.89,0.18,-3.39,53.66,41.75,side
2023-10-02 01:29:59,0.0039,-0.9706,0.2642,1.04,-1.77,0.24,-2.82,53.33,41.96,side
2023-10-02 01:29:59,0.0052,-0.9691,0.266,0.85,-1.71,0.31,-2.82,54.09,42.26,side
2023-10-02 01:29:59,0.0051,-0.9697,0.2643,1.04,-1.89,0.18,-3.2,54.76,41.35,side
2023-10-02 01:29:59,0.0043,-0.9706,0.2666,0.92,-1.95,0.24,-2.8,53.2,42.11,side
2023-10-02 01:29:59,0.004,-0.9701,0.2654,0.92,-1.95,0.12,-3.11,54.1,42.75,side
2023-10-02 01:29:59,0.0059,-0.9702,0.2654,0.92,-1.71,0.24,-3.34,54.47,42.99,side
2023-10-02 01:29:59,0.004,-0.9708,0.265,0.85,-1.71,0.31,-2.78,54.13,42.31,side
2023-10-02 01:29:59,0.0052,-0.9703,0.2642,0.79,-1.77,0.12,-2.71,53.23,42.15,side
2023-10-02 01:29:59,0.0049,-0.9712,0.2635,0.98,-1.71,0.37,-3.08,54.21,41.97,side
2023-10-02 01:30:00,0.005,-0.9703,0.2657,0.92,-1.89,0.37,-3.37,54.9,41.31,side
2023-10-02 01:30:00,0.0037,-0.9697,0.264,1.04,-1.77,0.24,-2.51,54.49,40.89,side
2023-10-02 01:30:00,0.0043,-0.97,0.2653,0.92,-1.77,0.24,-2.34,53.87,42.42,side
2023-10-02 01:30:00,0.0039,-0.9712,0.2637,1.04,-1.89,0.31,-2.48,54.61,41.96,side
2023-10-02 01:30:00,0.0063,-0.9688,0.2654,0.98,-1.77,0.31,-2.43,53.87,41.13,side
2023-10-02 01:30:00,0.0044,-0.97,0.2645,0.98,-1.77,0.31,-1.81,53.21,41.16,side
2023-10-02 01:30:00,0.0044,-0.9698,0.2653,1.1,-1.89,0.18,-2.84,54.2,40.91,side
2023-10-02 01:30:00,0.0042,-0.9712,0.2646,1.22,-1.89,0.24,-3.38,54.22,41.35,side
2023-10-02 01:30:00,0.0038,-0.9705,0.2659,0.92,-1.83,0.12,-3.3,53.77,41.43,side
2023-10-02 01:30:01,0.0045,-0.9722,0.2634,0.98,-1.77,0.31,-2.22,54.13,41.66,side
2023-10-02 01:30:01,0.0051,-0.9701,0.2655,1.1,-1.89,0.43,-2.95,54.61,41.46,side
2023-10-02 01:30:01,0.0038,-0.97,0.2631,0.98,-1.71,0.24,-3.26,54.06,42.13,side
2023-10-02 01:30:01,0.0049,-0.9686,0.2646,1.04,-1.77,0.31,-2.58,53.63,41.31,side
2023-10-02 01:30:01,0.0042,-0.9702,0.2643,0.92,-1.89,0.18,-3.15,54.53,42.66,side
2023-10-02 01:30:01,0.0062,-0.969,0.264,0.98,-1.95,0.24,-3.2,53.76,42.14,side
2023-10-02 01:30:01,0.004,-0.9708,0.2648,1.04,-1.95,0.31,-3.15,53.61,41.83,side
2023-10-02 01:30:01,0.005,-0.9701,0.2655,0.98,-1.83,0.37,-3.05,54.3,41.08,side
2023-10-02 01:30:01,0.0046,-0.9703,0.2635,0.85,-1.89,0.12,-2.86,54.42,40.49,side
2023-10-02 01:30:01,0.0045,-0.9697,0.2645,0.85,-1.83,0.24,-2.65,52.94,41.52,side
2023-10-02 01:30:02,0.0049,-0.9706,0.2643,0.79,-1.95,0.18,-2.62,53.69,41.58,side
2023-10-02 01:30:02,0.0062,-0.9705,0.2645,0.92,-1.71,0.24,-2.66,54.11,41.88,side
2023-10-02 01:30:02,0.0029,-0.9701,0.2633,1.04,-1.71,0.24,-2.93,53.85,40.7,side
2023-10-02 01:30:02,0.0066,-0.9717,0.2643,0.98,-1.71,0.31,-2.76,53.38,42.22,side
2023-10-02 01:30:02,0.0034,-0.9698,0.2646,0.92,-1.83,0.37,-2.32,53.98,42.29,side
2023-10-02 01:30:02,0.005,-0.9707,0.2644,1.04,-2.01,0.37,-2.66,54.41,40.34,side
2023-10-02 01:30:02,0.0045,-0.9707,0.2648,1.1,-1.77,0.18,-2.97,54.08,41.66,side
2023-10-02 01:30:02,0.0044,-0.9692,0.2655,0.79,-1.89,0.18,-3.22,53.78,41.52,side
2023-10-02 01:30:02,0.0045,-0.9694,0.2656,0.85,-1.83,0.24,-3.48,54.28,41.94,side
2023-10-02 01:30:03,0.0055,-0.9695,0.2642,1.1,-1.89,0.18,-3.31,54.08,42.6,side
2023-10-02 01:30:03,0.0048,-0.9696,0.2661,1.04,-2.08,0.18,-2.73,53.87,42.54,side
2023-10-02 01:30:03,0.0042,-0.9708,0.2654,1.1,-1.95,0.31,-2.91,54.38,42.81,side
2023-10-02 01:30:03,0.0048,-0.9691,0.2646,0.98,-1.89,0.24,-3.44,54.02,42.19,side
2023-10-02 01:30:03,0.0048,-0.9705,0.264,0.98,-1.77,0.37,-2.55,53.89,41.43,side
2023-10-02 01:30:03,0.0059,-0.9692,0.2654,1.22,-1.89,0.37,-2.6,53.87,42.2,side
2023-10-02 01:30:03,0.0046,-0.9727,0.2655,1.16,-2.01,0.24,-3.26,54.55,40.48,side
2023-10-02 01:30:03,0.0044,-0.9713,0.2653,0.92,-1.95,0.12,-3.49,53.47,43.15,side
2023-10-02 01:30:03,0.0035,-0.9717,0.2643,0.92,-2.01,0.18,-2.81,53.5,41.92,side
2023-10-02 01:30:03,0.0044,-0.9698,0.2637,1.04,-1.83,0.18,-3.25,54.42,40.83,side
2023-10-02 01:30:04,0.0051,-0.9698,0.265,1.16,-1.77,0.24,-3.09,53.39,41.28,side
2023-10-02 01:30:04,0.0039,-0.9697,0.2639,0.85,-1.89,0.18,-2.73,53.59,41.99,side
2023-10-02 01:30:04,0.0048,-0.9698,0.2656,0.98,-2.08,0.24,-2.77,53.94,40.94,side
2023-10-02 01:30:04,0.0046,-0.9705,0.2643,0.85,-1.89,0.24,-2.93,54.79,42.15,side
2023-10-02 01:30:04,0.0035,-0.9701,0.266,0.79,-2.01,0.12,-2.8,54.04,41.35,side
2023-10-02 01:30:04,0.0042,-0.9703,0.2638,1.04,-1.89,0.18,-2.56,53.43,41.21,side
2023-10-02 01:30:04,0.0039,-0.97,0.2646,0.92,-1.89,0.24,-3.03,53.91,41.47,side
2023-10-02 01:30:04,0.0051,-0.9695,0.2648,0.98,-1.89,0.37,-2.81,54.25,41.08,side
2023-10-02 01:30:04,0.0043,-0.9689,0.266,0.98,-1.83,0.18,-2.97,53.67,40.62,side
2023-10-02 01:30:05,0.0048,-0.9698,0.265,1.1,-1.95,0.18,-2.59,53.96,40.88,side
2023-10-02 01:30:05,0.0045,-0.9696,0.2656,0.98,-2.01,0.18,-3.26,54.44,41.59,side
2023-10-02 01:30:05,0.0042,-0.9705,0.2654,1.1,-1.89,0.31,-2.7,54.58,41.56,side
2023-10-02 01:30:05,0.0048,-0.9697,0.2654,1.04,-1.95,0.12,-2.77,53.87,41.43,side
2023-10-02 01:30:05,0.0037,-0.9696,0.2644,1.1,-1.83,0.37,-3.39,54.28,41.03,side
2023-10-02 01:30:05,0.0062,-0.9697,0.2661,0.92,-1.89,0.37,-3.14,53.77,41.19,side
2023-10-02 01:30:05,0.0044,-0.9698,0.2649,0.92,-1.83,0.24,-2.61,53.1,41.94,side
2023-10-02 01:30:05,0.0045,-0.9697,0.2645,1.1,-1.95,0.31,-3.43,53.2,41.04,side
2023-10-02 01:30:05,0.0045,-0.9703,0.2642,1.1,-1.77,0.31,-2.89,53.96,41.81,side
2023-10-02 01:30:06,0.0046,-0.9697,0.2661,0.98,-1.95,0.37,-2.94,53.15,41.47,side
2023-10-02 01:30:06,0.0049,-0.9702,0.2661,0.98,-1.71,0.18,-2.33,53.15,42.24,side
2023-10-02 01:30:06,0.0029,-0.9701,0.2662,1.16,-1.77,0.24,-2.93,53.91,41.25,side
2023-10-02 01:30:06,0.0054,-0.97,0.2655,1.16,-1.89,0.31,-2.78,53.43,42.24,side
2023-10-02 01:30:06,0.0059,-0.969,0.2655,1.04,-1.71,0.24,-2.17,53.82,42.42,side
2023-10-02 01:30:06,0.0029,-0.9692,0.2633,1.1,-1.89,0.31,-3.14,54.19,41.3,side
2023-10-02 01:30:06,0.0043,-0.9698,0.2648,0.92,-1.71,0.24,-2.73,53.5,41.25,side
2023-10-02 01:30:06,0.0052,-0.97,0.264,1.04,-2.08,0.24,-2.49,53.7,41.35,side
2023-10-02 01:30:06,0.0052,-0.9709,0.2634,0.92,-1.89,0.18,-2.69,53.41,42.31,side
2023-10-02 01:30:06,0.0039,-0.9697,0.2648,0.79,-1.83,0.18,-2.48,54.64,41.69,side
2023-10-02 01:30:07,0.0043,-0.9703,0.2642,0.92,-1.89,0.24,-3.41,53.47,41.31,side
2023-10-02 01:30:07,0.0054,-0.9698,0.2638,0.67,-1.83,0.24,-2.59,53.39,41.1,side
2023-10-02 01:30:07,0.0039,-0.9701,0.2638,0.92,-1.89,0.37,-2.66,54.54,42.11,side
2023-10-02 01:30:07,0.0044,-0.9703,0.2648,0.92,-1.77,0.24,-2.89,54.66,42.57,side
2023-10-02 01:30:07,0.0042,-0.9717,0.2649,0.98,-1.83,0.18,-2.75,53.83,42.97,side
2023-10-02 01:30:07,0.0043,-0.97,0.2625,1.1,-2.01,0.37,-3.41,54.44,42.19,side
2023-10-02 01:30:07,0.0055,-0.9702,0.2637,0.92,-1.89,0.24,-3.0,54.58,42.14,side
2023-10-02 01:30:07,0.0039,-0.9697,0.2645,0.85,-1.95,0.31,-2.69,53.45,41.03,side
2023-10-02 01:30:07,0.0049,-0.9698,0.2627,1.04,-1.95,0.31,-2.11,53.41,41.82,side
2023-10-02 01:30:08,0.0045,-0.969,0.2633,1.04,-1.95,0.31,-2.87,54.04,41.77,side
2023-10-02 01:30:08,0.0056,-0.9696,0.2643,1.16,-2.01,0.18,-2.51,54.2,41.87,side
2023-10-02 01:30:08,0.0044,-0.9698,0.2628,0.92,-1.95,0.18,-2.81,53.33,41.15,side
2023-10-02 01:30:08,0.0039,-0.9702,0.2646,0.92,-1.71,0.24,-2.49,53.78,42.2,side
2023-10-02 01:30:08,0.0049,-0.9691,0.2634,1.04,-1.89,0.18,-3.06,54.14,42.22,side
2023-10-02 01:30:08,0.005,-0.9705,0.264,0.98,-1.95,0.37,-2.08,53.49,41.32,side
2023-10-02 01:30:08,0.0028,-0.9722,0.2637,1.04,-1.83,0.24,-2.27,53.88,40.89,side
2023-10-02 01:30:08,0.0063,-0.9697,0.2649,1.04,-1.83,0.24,-3.31,54.06,42.05,side
2023-10-02 01:30:08,0.0046,-0.9717,0.2637,0.85,-1.89,0.31,-2.83,54.02,41.96,side
2023-10-02 01:30:09,0.0049,-0.9697,0.2637,0.98,-2.01,0.18,-2.22,53.66,42.11,side
2023-10-02 01:30:09,0.0052,-0.9705,0.2621,0.98,-2.01,0.37,-2.53,54.09,41.19,side
2023-10-02 01:30:09,0.0056,-0.9696,0.2646,0.98,-1.89,0.12,-2.53,53.99,41.99,side
2023-10-02 01:30:09,0.0046,-0.9701,0.2639,0.85,-1.89,0.12,-1.9,53.88,41.75,side
2023-10-02 01:30:09,0.0043,-0.9705,0.2627,0.92,-1.89,0.31,-2.86,54.61,40.75,side
2023-10-02 01:30:09,0.0043,-0.9711,0.2642,0.85,-1.95,0.24,-3.25,54.79,41.36,side
2023-10-02 01:30:09,0.0043,-0.9701,0.2629,0.73,-1.89,0.18,-2.47,53.65,42.7,side
2023-10-02 01:30:09,0.0037,-0.9705,0.2642,0.98,-1.89,0.18,-2.33,54.03,41.98,side
2023-10-02 01:30:09,0.0038,-0.9697,0.2642,1.16,-1.95,0.12,-3.06,54.27,41.86,side
2023-10-02 01:30:09,0.0048,-0.9708,0.2645,0.79,-1.83,0.18,-2.75,53.71,41.76,side
2023-10-02 01:30:10,0.0046,-0.9697,0.2637,1.16,-1.95,0.12,-2.51,53.22,41.11,side
2023-10-02 01:30:10,0.0043,-0.9689,0.2648,1.04,-1.89,0.24,-3.04,53.82,42.09,side
2023-10-02 01:30:10,0.004,-0.9698,0.2639,1.04,-1.89,0.24,-3.41,54.02,41.55,side
2023-10-02 01:30:10,0.0039,-0.9701,0.2654,1.16,-2.08,0.24,-2.88,53.17,42.71,side
2023-10-02 01:30:10,0.0039,-0.9707,0.2648,1.04,-1.95,0.18,-3.04,53.97,42.29,side
2023-10-02 01:30:10,0.0045,-0.9697,0.2648,1.1,-1.89,0.18,-3.33,54.09,41.82,side
2023-10-02 01:30:10,0.0044,-0.9707,0.2638,1.1,-1.89,0.18,-3.34,54.04,41.16,side
2023-10-02 01:30:10,0.0042,-0.9706,0.264,1.1,-1.89,0.37,-2.4,53.65,41.76,side
2023-10-02 01:30:10,0.0042,-0.97,0.2645,0.98,-1.77,0.31,-2.95,54.16,41.96,side
2023-10-02 01:30:11,0.0049,-0.9703,0.2635,1.16,-1.71,0.31,-2.95,53.94,42.05,side
2023-10-02 01:30:11,0.0035,-0.9697,0.2642,0.98,-1.83,0.18,-1.89,53.47,42.24,side
2023-10-02 01:30:11,0.0049,-0.9711,0.2629,0.85,-1.95,0.18,-3.27,53.83,42.75,side
2023-10-02 01:30:11,0.0059,-0.9706,0.2648,1.04,-1.89,0.24,-3.23,54.53,42.11,side
2023-10-02 01:30:11,0.0038,-0.9706,0.2643,1.04,-1.95,0.12,-2.62,53.26,42.58,side
2023-10-02 01:30:11,0.005,-0.9698,0.2639,1.1,-2.01,0.31,-1.99,54.08,43.01,side
2023-10-02 01:30:11,0.005,-0.97,0.2643,1.04,-1.89,0.18,-2.76,54.33,41.66,side
2023-10-02 01:30:11,0.005,-0.9701,0.2642,1.1,-2.01,0.18,-3.41,54.05,41.13,side
2023-10-02 01:30:11,0.0043,-0.9701,0.2632,0.79,-1.89,0.24,-2.54,53.77,42.05,side
2023-10-02 01:30:12,0.0042,-0.9696,0.2645,0.79,-1.77,0.12,-3.48,54.28,41.98,side
2023-10-02 01:30:12,0.0043,-0.9701,0.2639,0.92,-1.83,0.24,-3.06,54.41,42.05,side
2023-10-02 01:30:12,0.0038,-0.9697,0.2635,0.98,-1.89,0.12,-2.65,53.77,42.5,side
2023-10-02 01:30:12,0.0046,-0.9709,0.2637,0.92,-2.01,0.0,-2.32,54.03,41.75,side
2023-10-02 01:30:12,0.0045,-0.9697,0.2637,0.92,-1.95,0.18,-2.8,54.32,42.83,side
2023-10-02 01:30:12,0.0046,-0.97,0.2628,0.98,-1.95,0.24,-2.47,54.11,41.59,side
2023-10-02 01:30:12,0.0048,-0.97,0.2642,0.98,-2.08,0.24,-2.36,53.67,42.03,side
2023-10-02 01:30:12,0.0034,-0.9713,0.2643,0.92,-1.95,0.18,-2.6,53.86,42.38,side
2023-10-02 01:30:12,0.0054,-0.9696,0.2643,0.92,-1.95,0.31,-2.86,54.41,41.02,side
2023-10-02 01:30:12,0.004,-0.9702,0.2631,1.1,-1.71,0.12,-2.53,53.64,41.69,side
2023-10-02 01:30:13,0.0052,-0.9713,0.264,1.04,-1.95,0.24,-2.71,53.56,42.38,side
2023-10-02 01:30:13,0.005,-0.97,0.2648,0.98,-2.01,0.24,-3.31,53.93,42.02,side
2023-10-02 01:30:13,0.0043,-0.9698,0.2622,1.04,-1.89,0.37,-2.65,53.77,42.22,side
2023-10-02 01:30:13,0.0052,-0.97,0.2635,0.98,-1.89,0.31,-2.66,53.34,42.0,side
2023-10-02 01:30:13,0.0054,-0.9695,0.2615,0.98,-1.95,0.12,-2.84,53.61,41.77,side
2023-10-02 01:30:13,0.0043,-0.9709,0.2633,0.85,-1.83,0.31,-3.12,54.39,41.43,side
2023-10-02 01:30:13,0.0027,-0.9718,0.2614,0.98,-1.95,0.12,-2.09,53.32,42.85,side
2023-10-02 01:30:13,0.005,-0.9696,0.266,1.04,-1.83,0.31,-2.55,53.7,42.47,side
2023-10-02 01:30:13,0.0034,-0.9708,0.2637,0.92,-1.71,0.18,-3.04,54.25,41.98,side
2023-10-02 01:30:14,0.0055,-0.9695,0.2662,0.98,-1.89,0.18,-2.82,53.78,41.75,side
2023-10-02 01:30:14,0.0052,-0.9706,0.2649,0.92,-1.95,0.12,-2.25,53.56,41.7,side
2023-10-02 01:30:14,0.0038,-0.9705,0.2648,0.79,-1.83,0.12,-3.27,54.41,41.99,side
2023-10-02 01:30:14,0.0044,-0.9692,0.2639,0.73,-1.95,0.06,-2.86,54.14,42.42,side
2023-10-02 01:30:14,0.0056,-0.9694,0.2637,0.79,-1.83,0.31,-2.66,53.98,42.41,side
2023-10-02 01:30:14,0.005,-0.9695,0.2637,0.92,-1.77,0.24,-3.09,53.39,41.49,side
2023-10-02 01:30:14,0.0039,-0.9702,0.2649,0.85,-1.95,0.12,-2.58,54.39,42.25,side
2023-10-02 01:30:14,0.0055,-0.97,0.2638,0.79,-1.83,0.06,-2.78,53.77,42.83,side
2023-10-02 01:30:14,0.0037,-0.9698,0.265,0.98,-1.71,0.0,-1.98,53.5,42.77,side
2023-10-02 01:30:15,0.0052,-0.9696,0.2646,1.1,-1.89,0.06,-2.98,54.58,42.59,side
2023-10-02 01:30:15,0.0042,-0.9696,0.264,1.04,-1.95,0.24,-2.76,54.43,43.46,side
2023-10-02 01:30:15,0.0043,-0.9711,0.2628,1.04,-1.83,0.06,-2.47,54.42,42.69,side
2023-10-02 01:30:15,0.0061,-0.9713,0.2644,0.98,-1.89,0.31,-2.84,53.59,42.2,side
2023-10-02 01:30:15,0.005,-0.9694,0.2638,0.85,-1.89,0.12,-2.77,54.35,41.61,side
2023-10-02 01:30:15,0.0054,-0.9703,0.2634,1.04,-2.08,0.31,-2.81,53.25,42.24,side
2023-10-02 01:30:15,0.005,-0.9708,0.2646,0.98,-1.89,0.31,-2.91,53.02,41.38,side
2023-10-02 01:30:15,0.0035,-0.9698,0.2629,1.16,-1.89,0.31,-3.1,53.83,42.11,side
2023-10-02 01:30:15,0.0057,-0.9696,0.2644,0.98,-2.01,0.37,-3.03,53.54,41.54,side
2023-10-02 01:30:15,0.0037,-0.9708,0.2617,1.1,-1.95,0.24,-2.91,54.22,41.42,side
2023-10-02 01:30:16,0.0043,-0.9689,0.2653,0.98,-1.95,0.18,-2.89,53.75,42.41,side
2023-10-02 01:30:16,0.0034,-0.9725,0.2642,1.1,-2.01,0.37,-2.95,53.89,41.88,side
2023-10-02 01:30:16,0.006,-0.97,0.2645,1.1,-1.89,0.18,-3.12,53.91,41.74,side
2023-10-02 01:30:16,0.0034,-0.972,0.2643,1.22,-2.01,0.18,-2.73,53.38,42.4,side
2023-10-02 01:30:16,0.0054,-0.9689,0.2638,1.16,-2.01,0.31,-3.06,54.76,41.91,side
2023-10-02 01:30:16,0.0045,-0.9697,0.2643,1.04,-1.95,0.31,-2.64,53.37,40.7,side
2023-10-02 01:30:16,0.0056,-0.9707,0.2616,0.73,-2.01,0.12,-2.49,53.34,40.88,side
